File: Fresh Data/246/246_230502_C08.mpt
EC-Lab ASCII FILE
Nb header lines : 95

Modulo Bat

Run on channel : 8 (SN 55105)
User : Mitch
CE vs. WE compliance from -10 V to 10 V
Electrode connection : standard
Potential control : Ewe
Ewe ctrl range : min = -10.00 V, max = 10.00 V
Safety Limits :
	Do not start on E overload
Acquisition started on : 05/02/2023 14:36:29.764
Technique started on : 05/02/2023 14:36:29.764
Loaded Setting File :  C:\Users\OEMS\Documents\EC-Lab\Data\Mitch\Protocols\AMIDR Form.mps
Saved on :
	File : 246_230502_C08.mpr
	Directory : C:\Users\OEMS\Documents\EC-Lab\Data\Mitch\Results\Formation\
	Host : 192.168.1.58
Device : VMP-3e (SN .003109)
Address : USB
EC-Lab for windows v11.43 (software)
Internet server v11.40 (firmware)
Command interpretor v11.40 (firmware)
Electrode material :
Initial state :
Electrolyte :
Comments :
Mass of active material : 1.208 mg
 at x = 0.000
Molecular weight of active material (at x = 0) : 0.001 g/mol
Atomic weight of intercalated ion : 0.001 g/mol
Acquisition started at : xo = 0.000
Number of e- transfered per intercalated ion : 1
for DX = 1, DQ = 32376.209 mA.h
Battery capacity : 0.272 mA.h
Electrode surface area : 0.001 cm²
Characteristic mass : 0.001 g
Volume (V) : 0.001 cm³
Record Ece
Cycle Definition : Charge/Discharge alternance
Ns                  0                   1                   2                   3
ctrl_type           CC                  CC                  CC                  CV
Apply I/C           C / N               C / N               C / N               C / N
current/potential   current             current             current             current
ctrl1_val           60.000              60.000              60.000              0.000
ctrl1_val_unit      µA                  µA                  µA                  V
ctrl1_val_vs        <None>              <None>              <None>              Emeas
ctrl2_val
ctrl2_val_unit
ctrl2_val_vs
ctrl3_val
ctrl3_val_unit
ctrl3_val_vs
N                   20.00               20.00               20.00               20.00
charge/discharge    Charge              Discharge           Charge              Charge
charge/discharge_1  Charge              Charge              Charge              Charge
Apply I/C_1         I                   I                   I                   I
N1                  0.00                0.00                0.00                0.00
ctrl4_val
ctrl4_val_unit
ctrl_seq            0                   0                   0                   0
ctrl_repeat         0                   0                   0                   0
ctrl_trigger        Falling Edge        Falling Edge        Falling Edge        Falling Edge
ctrl_TO_t           0.000               0.000               0.000               0.000
ctrl_TO_t_unit      d                   d                   d                   d
ctrl_Nd             6                   6                   6                   6
ctrl_Na             2                   2                   2                   2
ctrl_corr           0                   0                   0                   0
lim_nb              1                   1                   1                   1
lim1_type           Ewe-Ece             Ewe-Ece             Ewe-Ece             Time
lim1_comp           >                   <                   >                   >
lim1_Q              Q limit             Q limit             Q limit             Q limit
lim1_value          4.200               3.000               4.200               15.000
lim1_value_unit     V                   V                   V                   mn
lim1_action         Next sequence       Next sequence       Next sequence       Next sequence
lim1_seq            1                   2                   3                   4
rec_nb              2                   2                   2                   1
rec1_type           Time                Time                Time                Time
rec1_value          20.000              20.000              20.000              30.000
rec1_value_unit     mn                  mn                  mn                  s
rec2_type           Ewe-Ece             Ewe-Ece             Ewe-Ece             Ewe-Ece
rec2_value          0.010               0.010               0.010               0.010
rec2_value_unit     V                   V                   V                   V
E range min (V)     -10.000             -10.000             -10.000             -10.000
E range max (V)     10.000              10.000              10.000              10.000
I Range             10 µA               10 µA               10 µA               10 µA
I Range min         Unset               Unset               Unset               Unset
I Range max         Unset               Unset               Unset               Unset
I Range init        Unset               Unset               Unset               Unset
auto rest           0                   0                   0                   0
Bandwidth           5                   5                   5                   5

mode	ox/red	error	control changes	Ns changes	counter inc.	Ns	I Range	time/s	control/V/mA	Ewe/V	I/mA	dq/mA.h	(Q-Qo)/mA.h	|Energy|/W.h	Q charge/discharge/mA.h	half cycle	Ece/V	Energy charge/W.h	Energy discharge/W.h	Capacitance charge/µF	Capacitance discharge/µF	x	Q discharge/mA.h	Q charge/mA.h	Capacity/mA.h	Efficiency/%	control/V	control/mA	cycle number	P/W	Ewe-Ece/V	R/Ohm
1	1	0	0	0	0	0	14	0.000000000000000E+000	0.0136	1.28082	0.0135261	0.000000000000000E+000	0.000000000000000E+000	0.000000000000000E+000	0.000000000000000E+000	0	-0.316572	0.000000000000000E+000	0.000000000000000E+000	0.000000000000000E+000	0.000000000000000E+000	0.000000000000000E+000	0.000000000000000E+000	0.000000000000000E+000	0.000000000000000E+000	0.0000000E+000	0.0000000E+000	0.0136	0.000000000000000E+000	1.73245e-05	1.59739	94692.9
1	1	0	0	0	0	0	14	801.206	0.0136	1.32091	0.0136012	0.00148554	0.003027	3.96448e-06	0.003027	0	-0.316562	3.96448e-06	0.000000000000000E+000	0.000000000000000E+000	0.000000000000000E+000	-9.34945e-08	0.000000000000000E+000	0.003027	0.003027	0.0000000E+000	0.0000000E+000	0.0136	0.000000000000000E+000	1.7966e-05	1.63748	97117.5
1	1	0	0	0	0	0	14	2913	0.0136	1.36127	0.0136011	0.00196727	0.0110054	1.46645e-05	0.0110054	0	-0.316371	1.46645e-05	0.000000000000000E+000	0.000000000000000E+000	0.000000000000000E+000	-3.39922e-07	0.000000000000000E+000	0.0110054	0.0110054	0.0000000E+000	0.0000000E+000	0.0136	0.000000000000000E+000	1.85147e-05	1.67764	100085
1	1	0	0	0	0	0	14	4589.52	0.0136	1.40182	0.0136009	0.00144877	0.0173393	2.34081e-05	0.0173393	0	-0.316047	2.34081e-05	0.000000000000000E+000	0.000000000000000E+000	0.000000000000000E+000	-5.35558e-07	0.000000000000000E+000	0.0173393	0.0173393	0.0000000E+000	0.0000000E+000	0.0136	0.000000000000000E+000	1.9066e-05	1.71786	103068
1	1	0	0	0	0	0	14	6102.62	0.0136	1.44204	0.0136015	0.001445	0.0230559	3.15361e-05	0.0230559	0	-0.315894	3.15361e-05	0.000000000000000E+000	0.000000000000000E+000	0.000000000000000E+000	-7.12125e-07	0.000000000000000E+000	0.0230559	0.0230559	0.0000000E+000	0.0000000E+000	0.0136	0.000000000000000E+000	1.96139e-05	1.75793	106020
1	1	0	0	0	0	0	14	7623.67	0.0136	1.48245	0.0136022	0.00141213	0.0288025	3.99375e-05	0.0288025	0	-0.315608	3.99375e-05	0.000000000000000E+000	0.000000000000000E+000	0.000000000000000E+000	-8.89619e-07	0.000000000000000E+000	0.0288025	0.0288025	0.0000000E+000	0.0000000E+000	0.0136	0.000000000000000E+000	2.01646e-05	1.79806	108987
1	1	0	0	0	0	0	14	8957.89	0.0136	1.52279	0.013601	0.00116325	0.0338432	4.75076e-05	0.0338432	0	-0.315379	4.75076e-05	0.000000000000000E+000	0.000000000000000E+000	0.000000000000000E+000	-1.04531e-06	0.000000000000000E+000	0.0338432	0.0338432	0.0000000E+000	0.0000000E+000	0.0136	0.000000000000000E+000	2.07114e-05	1.83817	111962
1	1	0	0	0	0	0	14	10018	0.0136	1.56301	0.0136007	0.000902708	0.0378483	5.36831e-05	0.0378483	0	-0.315283	5.36831e-05	0.000000000000000E+000	0.000000000000000E+000	0.000000000000000E+000	-1.16902e-06	0.000000000000000E+000	0.0378483	0.0378483	0.0000000E+000	0.0000000E+000	0.0136	0.000000000000000E+000	2.12581e-05	1.8783	114922
1	1	0	0	0	0	0	14	10858.8	0.0136	1.60314	0.0136012	0.000730131	0.0410247	5.8709e-05	0.0410247	0	-0.315245	5.8709e-05	0.000000000000000E+000	0.000000000000000E+000	0.000000000000000E+000	-1.26713e-06	0.000000000000000E+000	0.0410247	0.0410247	0.0000000E+000	0.0000000E+000	0.0136	0.000000000000000E+000	2.18046e-05	1.91838	117867
1	1	0	0	0	0	0	14	11544.9	0.0136	1.64346	0.0136015	0.000597521	0.0436168	6.29145e-05	0.0436168	0	-0.315074	6.29145e-05	0.000000000000000E+000	0.000000000000000E+000	0.000000000000000E+000	-1.34719e-06	0.000000000000000E+000	0.0436168	0.0436168	0.0000000E+000	0.0000000E+000	0.0136	0.000000000000000E+000	2.23534e-05	1.95853	120830
1	1	0	0	0	0	0	14	12105.4	0.0136	1.68353	0.0136007	0.000488102	0.0457345	6.64354e-05	0.0457345	0	-0.31515	6.64354e-05	0.000000000000000E+000	0.000000000000000E+000	0.000000000000000E+000	-1.41259e-06	0.000000000000000E+000	0.0457345	0.0457345	0.0000000E+000	0.0000000E+000	0.0136	0.000000000000000E+000	2.28971e-05	1.99868	123782
1	1	0	0	0	0	0	14	12566.9	0.0136	1.72373	0.0136008	0.000403886	0.0474782	6.94046e-05	0.0474782	0	-0.315035	6.94046e-05	0.000000000000000E+000	0.000000000000000E+000	0.000000000000000E+000	-1.46645e-06	0.000000000000000E+000	0.0474782	0.0474782	0.0000000E+000	0.0000000E+000	0.0136	0.000000000000000E+000	2.34442e-05	2.03877	126737
1	1	0	0	0	0	0	14	12948	0.0136	1.76376	0.0136011	0.000336549	0.0489178	7.19139e-05	0.0489178	0	-0.315112	7.19139e-05	0.000000000000000E+000	0.000000000000000E+000	0.000000000000000E+000	-1.51092e-06	0.000000000000000E+000	0.0489178	0.0489178	0.0000000E+000	0.0000000E+000	0.0136	0.000000000000000E+000	2.39891e-05	2.07887	129678
1	1	0	0	0	0	0	14	13270.2	0.0136	1.80398	0.0136011	0.000289503	0.0501353	7.40849e-05	0.0501353	0	-0.315093	7.40849e-05	0.000000000000000E+000	0.000000000000000E+000	0.000000000000000E+000	-1.54852e-06	0.000000000000000E+000	0.0501353	0.0501353	0.0000000E+000	0.0000000E+000	0.0136	0.000000000000000E+000	2.45361e-05	2.11908	132635
1	1	0	0	0	0	0	14	13546.2	0.0136	1.84407	0.013601	0.000248884	0.051178	7.59862e-05	0.051178	0	-0.31515	7.59862e-05	0.000000000000000E+000	0.000000000000000E+000	0.000000000000000E+000	-1.58073e-06	0.000000000000000E+000	0.051178	0.051178	0.0000000E+000	0.0000000E+000	0.0136	0.000000000000000E+000	2.50812e-05	2.15922	135584
1	1	0	0	0	0	0	14	13786.6	0.0136	1.88416	0.0136018	0.000216454	0.0520861	7.76785e-05	0.0520861	0	-0.315207	7.76785e-05	0.000000000000000E+000	0.000000000000000E+000	0.000000000000000E+000	-1.60878e-06	0.000000000000000E+000	0.0520861	0.0520861	0.0000000E+000	0.0000000E+000	0.0136	0.000000000000000E+000	2.56281e-05	2.19937	138523
1	1	0	0	0	0	0	14	13999.7	0.0136	1.92433	0.0136013	0.000192245	0.0528912	7.92112e-05	0.0528912	0	-0.315131	7.92112e-05	0.000000000000000E+000	0.000000000000000E+000	0.000000000000000E+000	-1.63365e-06	0.000000000000000E+000	0.0528912	0.0528912	0.0000000E+000	0.0000000E+000	0.0136	0.000000000000000E+000	2.61734e-05	2.23946	141481
1	1	0	0	0	0	0	14	14190.6	0.0136	1.96438	0.0135999	0.00017311	0.0536125	8.06133e-05	0.0536125	0	-0.315226	8.06133e-05	0.000000000000000E+000	0.000000000000000E+000	0.000000000000000E+000	-1.65592e-06	0.000000000000000E+000	0.0536125	0.0536125	0.0000000E+000	0.0000000E+000	0.0136	0.000000000000000E+000	2.67154e-05	2.2796	144440
1	1	0	0	0	0	0	14	14363.3	0.0136	2.00456	0.0136011	0.00015863	0.0542648	8.19074e-05	0.0542648	0	-0.315264	8.19074e-05	0.000000000000000E+000	0.000000000000000E+000	0.000000000000000E+000	-1.67607e-06	0.000000000000000E+000	0.0542648	0.0542648	0.0000000E+000	0.0000000E+000	0.0136	0.000000000000000E+000	2.72643e-05	2.31983	147382
1	1	0	0	0	0	0	14	14520.9	0.0136	2.0449	0.013601	0.000144013	0.0548604	8.31131e-05	0.0548604	0	-0.315093	8.31131e-05	0.000000000000000E+000	0.000000000000000E+000	0.000000000000000E+000	-1.69447e-06	0.000000000000000E+000	0.0548604	0.0548604	0.0000000E+000	0.0000000E+000	0.0136	0.000000000000000E+000	2.78127e-05	2.35999	150349
1	1	0	0	0	0	0	14	14665.5	0.0136	2.08508	0.0136015	0.000132375	0.0554066	8.42408e-05	0.0554066	0	-0.315035	8.42408e-05	0.000000000000000E+000	0.000000000000000E+000	0.000000000000000E+000	-1.71134e-06	0.000000000000000E+000	0.0554066	0.0554066	0.0000000E+000	0.0000000E+000	0.0136	0.000000000000000E+000	2.83602e-05	2.40012	153299
1	1	0	0	0	0	0	14	14798.8	0.0136	2.12508	0.0136003	0.000121763	0.0559105	8.53013e-05	0.0559105	0	-0.315245	8.53013e-05	0.000000000000000E+000	0.000000000000000E+000	0.000000000000000E+000	-1.7269e-06	0.000000000000000E+000	0.0559105	0.0559105	0.0000000E+000	0.0000000E+000	0.0136	0.000000000000000E+000	2.89016e-05	2.44032	156253
1	1	0	0	0	0	0	14	14923.5	0.0136	2.16536	0.0136016	0.000115561	0.0563814	8.63112e-05	0.0563814	0	-0.315169	8.63112e-05	0.000000000000000E+000	0.000000000000000E+000	0.000000000000000E+000	-1.74144e-06	0.000000000000000E+000	0.0563814	0.0563814	0.0000000E+000	0.0000000E+000	0.0136	0.000000000000000E+000	2.94524e-05	2.48053	159198
1	1	0	0	0	0	0	14	15039.7	0.0136	2.20548	0.0136006	0.000107443	0.0568203	8.72702e-05	0.0568203	0	-0.315169	8.72702e-05	0.000000000000000E+000	0.000000000000000E+000	0.000000000000000E+000	-1.755e-06	0.000000000000000E+000	0.0568203	0.0568203	0.0000000E+000	0.0000000E+000	0.0136	0.000000000000000E+000	2.9996e-05	2.52065	162160
1	1	0	0	0	0	0	14	15149	0.0136	2.24561	0.0136012	0.000100072	0.0572335	8.81897e-05	0.0572335	0	-0.315169	8.81897e-05	0.000000000000000E+000	0.000000000000000E+000	0.000000000000000E+000	-1.76776e-06	0.000000000000000E+000	0.0572335	0.0572335	0.0000000E+000	0.0000000E+000	0.0136	0.000000000000000E+000	3.0543e-05	2.56078	165104
1	1	0	0	0	0	0	14	15252.2	0.0136	2.28568	0.0136007	9.49771e-05	0.0576233	8.90729e-05	0.0576233	0	-0.315188	8.90729e-05	0.000000000000000E+000	0.000000000000000E+000	0.000000000000000E+000	-1.7798e-06	0.000000000000000E+000	0.0576233	0.0576233	0.0000000E+000	0.0000000E+000	0.0136	0.000000000000000E+000	3.10869e-05	2.60087	168056
1	1	0	0	0	0	0	14	15350.3	0.0136	2.32583	0.0136007	9.12476e-05	0.057994	8.99274e-05	0.057994	0	-0.315131	8.99274e-05	0.000000000000000E+000	0.000000000000000E+000	0.000000000000000E+000	-1.79125e-06	0.000000000000000E+000	0.057994	0.057994	0.0000000E+000	0.0000000E+000	0.0136	0.000000000000000E+000	3.16329e-05	2.64096	171008
1	1	0	0	0	0	0	14	15443.9	0.0136	2.36594	0.0136012	8.72617e-05	0.0583473	9.07562e-05	0.0583473	0	-0.315112	9.07562e-05	0.000000000000000E+000	0.000000000000000E+000	0.000000000000000E+000	-1.80217e-06	0.000000000000000E+000	0.0583473	0.0583473	0.0000000E+000	0.0000000E+000	0.0136	0.000000000000000E+000	3.21796e-05	2.68105	173950
1	1	0	0	0	0	0	14	15533.2	0.0136	2.40593	0.0136013	8.30381e-05	0.0586849	9.15616e-05	0.0586849	0	-0.315188	9.15616e-05	0.000000000000000E+000	0.000000000000000E+000	0.000000000000000E+000	-1.81259e-06	0.000000000000000E+000	0.0586849	0.0586849	0.0000000E+000	0.0000000E+000	0.0136	0.000000000000000E+000	3.27238e-05	2.72112	176889
1	1	0	0	0	0	0	14	15619.7	0.0136	2.44596	0.0136015	8.07976e-05	0.0590119	9.23547e-05	0.0590119	0	-0.315283	9.23547e-05	0.000000000000000E+000	0.000000000000000E+000	0.000000000000000E+000	-1.82269e-06	0.000000000000000E+000	0.0590119	0.0590119	0.0000000E+000	0.0000000E+000	0.0136	0.000000000000000E+000	3.32686e-05	2.76124	179831
1	1	0	0	0	0	0	14	15703.7	0.0136	2.48624	0.0136008	7.82827e-05	0.0593289	9.31365e-05	0.0593289	0	-0.31515	9.31365e-05	0.000000000000000E+000	0.000000000000000E+000	0.000000000000000E+000	-1.83249e-06	0.000000000000000E+000	0.0593289	0.0593289	0.0000000E+000	0.0000000E+000	0.0136	0.000000000000000E+000	3.38148e-05	2.80139	182802
1	1	0	0	0	0	0	14	15785.8	0.0136	2.52623	0.0136008	7.68008e-05	0.0596392	9.3914e-05	0.0596392	0	-0.315264	9.3914e-05	0.000000000000000E+000	0.000000000000000E+000	0.000000000000000E+000	-1.84207e-06	0.000000000000000E+000	0.0596392	0.0596392	0.0000000E+000	0.0000000E+000	0.0136	0.000000000000000E+000	3.43589e-05	2.8415	185741
1	1	0	0	0	0	0	14	15866.1	0.0136	2.56648	0.013601	7.55511e-05	0.0599427	9.46869e-05	0.0599427	0	-0.315131	9.46869e-05	0.000000000000000E+000	0.000000000000000E+000	0.000000000000000E+000	-1.85144e-06	0.000000000000000E+000	0.0599427	0.0599427	0.0000000E+000	0.0000000E+000	0.0136	0.000000000000000E+000	3.49065e-05	2.88161	188698
1	1	0	0	0	0	0	14	15942.9	0.0136	2.6066	0.0136015	7.16942e-05	0.0602326	9.54366e-05	0.0602326	0	-0.315093	9.54366e-05	0.000000000000000E+000	0.000000000000000E+000	0.000000000000000E+000	-1.8604e-06	0.000000000000000E+000	0.0602326	0.0602326	0.0000000E+000	0.0000000E+000	0.0136	0.000000000000000E+000	3.54538e-05	2.9217	191640
1	1	0	0	0	0	0	14	16017.2	0.0136	2.64671	0.0136011	7.01746e-05	0.0605137	9.61747e-05	0.0605136	0	-0.31515	9.61747e-05	0.000000000000000E+000	0.000000000000000E+000	0.000000000000000E+000	-1.86908e-06	0.000000000000000E+000	0.0605136	0.0605136	0.0000000E+000	0.0000000E+000	0.0136	0.000000000000000E+000	3.59981e-05	2.96186	194596
1	1	0	0	0	0	0	14	16090.5	0.0136	2.68682	0.0136011	6.81056e-05	0.0607902	9.69122e-05	0.0607902	0	-0.315169	9.69122e-05	0.000000000000000E+000	0.000000000000000E+000	0.000000000000000E+000	-1.87762e-06	0.000000000000000E+000	0.0607902	0.0607902	0.0000000E+000	0.0000000E+000	0.0136	0.000000000000000E+000	3.65438e-05	3.00199	197544
1	1	0	0	0	0	0	14	16162.8	0.0136	2.72702	0.0136007	6.7941e-05	0.0610637	9.76523e-05	0.0610637	0	-0.315169	9.76523e-05	0.000000000000000E+000	0.000000000000000E+000	0.000000000000000E+000	-1.88607e-06	0.000000000000000E+000	0.0610637	0.0610637	0.0000000E+000	0.0000000E+000	0.0136	0.000000000000000E+000	3.70894e-05	3.04219	200506
1	1	0	0	0	0	0	14	16233.6	0.0136	2.76713	0.0136007	6.61868e-05	0.0613311	9.83869e-05	0.0613311	0	-0.315207	9.83869e-05	0.000000000000000E+000	0.000000000000000E+000	0.000000000000000E+000	-1.89433e-06	0.000000000000000E+000	0.0613311	0.0613311	0.0000000E+000	0.0000000E+000	0.0136	0.000000000000000E+000	3.76349e-05	3.08234	203455
1	1	0	0	0	0	0	14	16303.4	0.0136	2.80735	0.0136018	6.58549e-05	0.0615947	9.91215e-05	0.0615947	0	-0.315112	9.91215e-05	0.000000000000000E+000	0.000000000000000E+000	0.000000000000000E+000	-1.90247e-06	0.000000000000000E+000	0.0615947	0.0615947	0.0000000E+000	0.0000000E+000	0.0136	0.000000000000000E+000	3.8185e-05	3.12246	206396
1	1	0	0	0	0	0	14	16372.4	0.0136	2.84737	0.0136007	6.51735e-05	0.0618554	9.98585e-05	0.0618554	0	-0.315226	9.98585e-05	0.000000000000000E+000	0.000000000000000E+000	0.000000000000000E+000	-1.91052e-06	0.000000000000000E+000	0.0618554	0.0618554	0.0000000E+000	0.0000000E+000	0.0136	0.000000000000000E+000	3.87261e-05	3.16259	209354
1	1	0	0	0	0	0	14	16440.5	0.0136	2.88761	0.0136003	6.43043e-05	0.0621127	0.000100596	0.0621127	0	-0.315264	0.000100596	0.000000000000000E+000	0.000000000000000E+000	0.000000000000000E+000	-1.91847e-06	0.000000000000000E+000	0.0621127	0.0621127	0.0000000E+000	0.0000000E+000	0.0136	0.000000000000000E+000	3.92724e-05	3.20287	212319
1	1	0	0	0	0	0	14	16508.3	0.0136	2.92787	0.0136006	6.37166e-05	0.0623689	0.000101341	0.0623689	0	-0.315188	0.000101341	0.000000000000000E+000	0.000000000000000E+000	0.000000000000000E+000	-1.92638e-06	0.000000000000000E+000	0.0623689	0.0623689	0.0000000E+000	0.0000000E+000	0.0136	0.000000000000000E+000	3.98209e-05	3.24306	215274
1	1	0	0	0	0	0	14	16575.7	0.0136	2.96792	0.0136003	6.38073e-05	0.0626234	0.000102092	0.0626234	0	-0.315303	0.000102092	0.000000000000000E+000	0.000000000000000E+000	0.000000000000000E+000	-1.93424e-06	0.000000000000000E+000	0.0626234	0.0626234	0.0000000E+000	0.0000000E+000	0.0136	0.000000000000000E+000	4.03646e-05	3.28322	218224
1	1	0	0	0	0	0	14	16643.1	0.0136	3.00812	0.0136008	6.31506e-05	0.0628781	0.000102853	0.0628781	0	-0.315207	0.000102853	0.000000000000000E+000	0.000000000000000E+000	0.000000000000000E+000	-1.94211e-06	0.000000000000000E+000	0.0628781	0.0628781	0.0000000E+000	0.0000000E+000	0.0136	0.000000000000000E+000	4.09129e-05	3.32333	221172
1	1	0	0	0	0	0	14	16711.8	0.0136	3.04842	0.013601	6.65099e-05	0.0631378	0.000103639	0.0631378	0	-0.315112	0.000103639	0.000000000000000E+000	0.000000000000000E+000	0.000000000000000E+000	-1.95013e-06	0.000000000000000E+000	0.0631378	0.0631378	0.0000000E+000	0.0000000E+000	0.0136	0.000000000000000E+000	4.14616e-05	3.36353	224132
1	1	0	0	0	0	0	14	16782.5	0.0136	3.08859	0.0136008	6.71803e-05	0.0634047	0.000104458	0.0634047	0	-0.315131	0.000104458	0.000000000000000E+000	0.000000000000000E+000	0.000000000000000E+000	-1.95837e-06	0.000000000000000E+000	0.0634047	0.0634047	0.0000000E+000	0.0000000E+000	0.0136	0.000000000000000E+000	4.20073e-05	3.40372	227088
1	1	0	0	0	0	0	14	16857.4	0.0136	3.12879	0.0136008	7.2724e-05	0.0636878	0.000105338	0.0636878	0	-0.315016	0.000105338	0.000000000000000E+000	0.000000000000000E+000	0.000000000000000E+000	-1.96712e-06	0.000000000000000E+000	0.0636878	0.0636878	0.0000000E+000	0.0000000E+000	0.0136	0.000000000000000E+000	4.25541e-05	3.44381	230044
1	1	0	0	0	0	0	14	16939.1	0.0136	3.16888	0.0136018	7.96134e-05	0.0639965	0.00010631	0.0639965	0	-0.315112	0.00010631	0.000000000000000E+000	0.000000000000000E+000	0.000000000000000E+000	-1.97665e-06	0.000000000000000E+000	0.0639965	0.0639965	0.0000000E+000	0.0000000E+000	0.0136	0.000000000000000E+000	4.31024e-05	3.48399	232975
1	1	0	0	0	0	0	14	17038	0.0136	3.20906	0.0136011	0.000102687	0.0643701	0.000107502	0.0643701	0	-0.315054	0.000107502	0.000000000000000E+000	0.000000000000000E+000	0.000000000000000E+000	-1.98819e-06	0.000000000000000E+000	0.0643701	0.0643701	0.0000000E+000	0.0000000E+000	0.0136	0.000000000000000E+000	4.36467e-05	3.52412	235942
1	1	0	0	0	0	0	14	17177.5	0.0136	3.24949	0.0136017	0.000156049	0.0648972	0.000109204	0.0648972	0	-0.314749	0.000109204	0.000000000000000E+000	0.000000000000000E+000	0.000000000000000E+000	-2.00447e-06	0.000000000000000E+000	0.0648972	0.0648972	0.0000000E+000	0.0000000E+000	0.0136	0.000000000000000E+000	4.41987e-05	3.56424	238903
1	1	0	0	0	0	0	14	17428.9	0.0136	3.28956	0.013601	0.000314448	0.0658469	0.000112312	0.0658469	0	-0.314749	0.000112312	0.000000000000000E+000	0.000000000000000E+000	0.000000000000000E+000	-2.03381e-06	0.000000000000000E+000	0.0658469	0.0658469	0.0000000E+000	0.0000000E+000	0.0136	0.000000000000000E+000	4.47414e-05	3.60431	241862
1	1	0	0	0	0	0	14	18118.8	0.0136	3.32992	0.0136008	0.000972673	0.0684535	0.000120949	0.0684535	0	-0.31452	0.000120949	0.000000000000000E+000	0.000000000000000E+000	0.000000000000000E+000	-2.11431e-06	0.000000000000000E+000	0.0684535	0.0684535	0.0000000E+000	0.0000000E+000	0.0136	0.000000000000000E+000	4.52895e-05	3.64444	244833
1	1	0	0	0	0	0	14	20630	0.0136	3.37043	0.0136005	0.00354165	0.0779406	0.000152769	0.0779406	0	-0.314081	0.000152769	0.000000000000000E+000	0.000000000000000E+000	0.000000000000000E+000	-2.40734e-06	0.000000000000000E+000	0.0779406	0.0779406	0.0000000E+000	0.0000000E+000	0.0136	0.000000000000000E+000	4.58395e-05	3.68451	247816
1	1	0	0	0	0	0	14	25427.3	0.0136	3.40395	0.0136008	0.00453358	0.0960648	0.000214179	0.0960648	0	-0.313604	0.000214179	0.000000000000000E+000	0.000000000000000E+000	0.000000000000000E+000	-2.96714e-06	0.000000000000000E+000	0.0960648	0.0960648	0.0000000E+000	0.0000000E+000	0.0136	0.000000000000000E+000	4.62964e-05	3.71756	250277
1	1	0	0	0	0	0	14	30227.3	0.0136	3.43399	0.0136009	0.00453356	0.114199	0.000276165	0.114199	0	-0.310838	0.000276165	0.000000000000000E+000	0.000000000000000E+000	0.000000000000000E+000	-3.52725e-06	0.000000000000000E+000	0.114199	0.114199	0.0000000E+000	0.0000000E+000	0.0136	0.000000000000000E+000	4.67053e-05	3.74483	252483
1	1	0	0	0	0	0	14	35027.3	0.0136	3.48474	0.0136011	0.00453355	0.132333	0.000338908	0.132333	0	-0.288284	0.000338908	0.000000000000000E+000	0.000000000000000E+000	0.000000000000000E+000	-4.08736e-06	0.000000000000000E+000	0.132333	0.132333	0.0000000E+000	0.0000000E+000	0.0136	0.000000000000000E+000	4.73965e-05	3.77303	256210
1	1	0	0	0	0	0	14	39827.3	0.0136	3.51905	0.0136006	0.00453352	0.150467	0.000402444	0.150467	0	-0.28216	0.000402444	0.000000000000000E+000	0.000000000000000E+000	0.000000000000000E+000	-4.64746e-06	0.000000000000000E+000	0.150467	0.150467	0.0000000E+000	0.0000000E+000	0.0136	0.000000000000000E+000	4.78613e-05	3.80121	258742
1	1	0	0	0	0	0	14	44627.3	0.0136	3.54448	0.013601	0.0045335	0.168601	0.000466476	0.168601	0	-0.286109	0.000466476	0.000000000000000E+000	0.000000000000000E+000	0.000000000000000E+000	-5.20757e-06	0.000000000000000E+000	0.168601	0.168601	0.0000000E+000	0.0000000E+000	0.0136	0.000000000000000E+000	4.82084e-05	3.83059	260606
1	1	0	0	0	0	0	14	49356.7	0.0136	3.57973	0.0136004	0.00426679	0.186469	0.000530102	0.186469	0	-0.287349	0.000530102	0.000000000000000E+000	0.000000000000000E+000	0.000000000000000E+000	-5.75943e-06	0.000000000000000E+000	0.186469	0.186469	0.0000000E+000	0.0000000E+000	0.0136	0.000000000000000E+000	4.86856e-05	3.86708	263208
1	1	0	0	0	0	0	14	53353.7	0.0136	3.61928	0.0136001	0.00346751	0.201569	0.000584437	0.201569	0	-0.287941	0.000584437	0.000000000000000E+000	0.000000000000000E+000	0.000000000000000E+000	-6.22582e-06	0.000000000000000E+000	0.201569	0.201569	0.0000000E+000	0.0000000E+000	0.0136	0.000000000000000E+000	4.92225e-05	3.90722	266122
1	1	0	0	0	0	0	14	56579.9	0.0136	3.65886	0.0136001	0.00285985	0.213757	0.000628781	0.213757	0	-0.288456	0.000628781	0.000000000000000E+000	0.000000000000000E+000	0.000000000000000E+000	-6.60228e-06	0.000000000000000E+000	0.213757	0.213757	0.0000000E+000	0.0000000E+000	0.0136	0.000000000000000E+000	4.97609e-05	3.94731	269031
1	1	0	0	0	0	0	14	59395	0.0136	3.69816	0.0136011	0.00257191	0.224392	0.000667897	0.224392	0	-0.289238	0.000667897	0.000000000000000E+000	0.000000000000000E+000	0.000000000000000E+000	-6.93076e-06	0.000000000000000E+000	0.224392	0.224392	0.0000000E+000	0.0000000E+000	0.0136	0.000000000000000E+000	5.02992e-05	3.9874	271901
1	1	0	0	0	0	0	14	62006.7	0.0136	3.73718	0.0136006	0.00243102	0.234258	0.000704573	0.234258	0	-0.290307	0.000704573	0.000000000000000E+000	0.000000000000000E+000	0.000000000000000E+000	-7.23551e-06	0.000000000000000E+000	0.234258	0.234258	0.0000000E+000	0.0000000E+000	0.0136	0.000000000000000E+000	5.08281e-05	4.02749	274780
1	1	0	0	0	0	0	14	64486.9	0.0136	3.77632	0.0135996	0.00228927	0.243628	0.000739768	0.243628	0	-0.291261	0.000739768	0.000000000000000E+000	0.000000000000000E+000	0.000000000000000E+000	-7.5249e-06	0.000000000000000E+000	0.243628	0.243628	0.0000000E+000	0.0000000E+000	0.0136	0.000000000000000E+000	5.13562e-05	4.06758	277680
1	1	0	0	0	0	0	14	66870.9	0.0136	3.81522	0.0135999	0.00221884	0.252634	0.000773949	0.252634	0	-0.292425	0.000773949	0.000000000000000E+000	0.000000000000000E+000	0.000000000000000E+000	-7.80307e-06	0.000000000000000E+000	0.252634	0.252634	0.0000000E+000	0.0000000E+000	0.0136	0.000000000000000E+000	5.18865e-05	4.10765	280534
1	1	0	0	0	0	0	14	69167	0.0136	3.85415	0.0136004	0.00215923	0.261308	0.000807209	0.261308	0	-0.293589	0.000807209	0.000000000000000E+000	0.000000000000000E+000	0.000000000000000E+000	-8.07098e-06	0.000000000000000E+000	0.261308	0.261308	0.0000000E+000	0.0000000E+000	0.0136	0.000000000000000E+000	5.24179e-05	4.14774	283385
1	1	0	0	0	0	0	14	71428.8	0.0136	3.89468	0.0136001	0.00213573	0.269853	0.000840315	0.269853	0	-0.29315	0.000840315	0.000000000000000E+000	0.000000000000000E+000	0.000000000000000E+000	-8.33491e-06	0.000000000000000E+000	0.269853	0.269853	0.0000000E+000	0.0000000E+000	0.0136	0.000000000000000E+000	5.29678e-05	4.18783	286372
1	0	0	1	1	0	1	14	72140.7	-0.0136	3.90727	-0.0133155	7.71479e-10	0.272542	0.000850806	0.272542	0	-0.293575	0.000850806	0.000000000000000E+000	0.000000000000000E+000	0.000000000000000E+000	-8.41798e-06	0.000000000000000E+000	0.272542	0.272542	0.0000000E+000	0.0000000E+000	-0.0136	0.000000000000000E+000	-5.20273e-05	4.20084	293437
1	0	0	1	0	0	1	14	73064.2	-0.0136	3.86839	-0.013604	-0.00122927	0.269052	0.000864358	-0.00348975	1	-0.292272	0.000850806	1.35528e-05	0.000000000000000E+000	0.000000000000000E+000	-8.31019e-06	0.00348975	0.000000000000000E+000	0.00348975	0.0000000E+000	0.0000000E+000	-0.0136	0.000000000000000E+000	-5.26257e-05	4.16066	284356
1	0	0	1	0	0	1	14	74490	-0.0136	3.82788	-0.0136045	-0.00140805	0.263664	0.00088509	-0.00887773	1	-0.292616	0.000850806	3.42846e-05	0.000000000000000E+000	0.000000000000000E+000	-8.14377e-06	0.00887773	0.000000000000000E+000	0.00887773	0.0000000E+000	0.0000000E+000	-0.0136	0.000000000000000E+000	-5.20763e-05	4.12049	281369
1	0	0	1	0	0	1	14	76103.8	-0.0136	3.78758	-0.0136042	-0.00157957	0.257566	0.000908311	-0.0149762	1	-0.292845	0.000850806	5.75052e-05	0.000000000000000E+000	0.000000000000000E+000	-7.95541e-06	0.0149762	0.000000000000000E+000	0.0149762	0.0000000E+000	0.0000000E+000	-0.0136	0.000000000000000E+000	-5.15269e-05	4.08043	278413
1	0	0	1	0	0	1	14	77891	-0.0136	3.74694	-0.0136041	-0.00174211	0.250812	0.000933754	-0.0217302	1	-0.293303	0.000850806	8.29483e-05	0.000000000000000E+000	0.000000000000000E+000	-7.7468e-06	0.0217302	0.000000000000000E+000	0.0217302	0.0000000E+000	0.0000000E+000	-0.0136	0.000000000000000E+000	-5.09737e-05	4.04024	275427
1	0	0	1	0	0	1	14	79827.5	-0.0136	3.70691	-0.0136037	-0.00187032	0.243494	0.000961026	-0.0290477	1	-0.293169	0.000850806	0.00011022	0.000000000000000E+000	0.000000000000000E+000	-7.52078e-06	0.0290477	0.000000000000000E+000	0.0290477	0.0000000E+000	0.0000000E+000	-0.0136	0.000000000000000E+000	-5.04275e-05	4.00008	272493
1	0	0	1	0	0	1	14	81916.4	-0.0136	3.66699	-0.0136042	-0.00203677	0.2356	0.00099013	-0.0369417	1	-0.293016	0.000850806	0.000139324	0.000000000000000E+000	0.000000000000000E+000	-7.27696e-06	0.0369417	0.000000000000000E+000	0.0369417	0.0000000E+000	0.0000000E+000	-0.0136	0.000000000000000E+000	-4.98863e-05	3.96001	269549
1	0	0	1	0	0	1	14	84250.1	-0.0136	3.62698	-0.013604	-0.00231137	0.226781	0.00102229	-0.0457607	1	-0.29294	0.000850806	0.000171484	0.000000000000000E+000	0.000000000000000E+000	-7.00457e-06	0.0457607	0.000000000000000E+000	0.0457607	0.0000000E+000	0.0000000E+000	-0.0136	0.000000000000000E+000	-4.93415e-05	3.91992	266610
1	0	0	1	0	0	1	14	87022.3	-0.0136	3.58744	-0.0136032	-0.00281671	0.216306	0.00106007	-0.0562364	1	-0.292368	0.000850806	0.000209268	0.000000000000000E+000	0.000000000000000E+000	-6.68101e-06	0.0562364	0.000000000000000E+000	0.0562364	0.0000000E+000	0.0000000E+000	-0.0136	0.000000000000000E+000	-4.88007e-05	3.87981	263720
1	0	0	1	0	0	1	14	90526.3	-0.0136	3.54768	-0.0136048	-0.0036402	0.203065	0.0011073	-0.0694776	1	-0.292005	0.000850806	0.000256497	0.000000000000000E+000	0.000000000000000E+000	-6.27203e-06	0.0694776	0.000000000000000E+000	0.0694776	0.0000000E+000	0.0000000E+000	-0.0136	0.000000000000000E+000	-4.82654e-05	3.83968	260766
1	0	0	1	0	0	1	14	95081.8	-0.0136	3.50879	-0.0136038	-0.00453469	0.18585	0.00116803	-0.0866924	1	-0.292139	0.000850806	0.00031722	0.000000000000000E+000	0.000000000000000E+000	-5.74032e-06	0.0866924	0.000000000000000E+000	0.0866924	0.0000000E+000	0.0000000E+000	-0.0136	0.000000000000000E+000	-4.7733e-05	3.80093	257926
1	0	0	1	0	0	1	14	99881.8	-0.0136	3.47591	-0.0136042	-0.00453469	0.167711	0.00123136	-0.104831	1	-0.291643	0.000850806	0.000380558	0.000000000000000E+000	0.000000000000000E+000	-5.18007e-06	0.104831	0.000000000000000E+000	0.104831	0.0000000E+000	0.0000000E+000	-0.0136	0.000000000000000E+000	-4.72869e-05	3.76756	255504
1	0	0	1	0	0	1	14	104682	-0.0136	3.44422	-0.0136042	-0.0045347	0.149572	0.00129413	-0.12297	1	-0.290879	0.000850806	0.000443326	0.000000000000000E+000	0.000000000000000E+000	-4.61982e-06	0.12297	0.000000000000000E+000	0.12297	0.0000000E+000	0.0000000E+000	-0.0136	0.000000000000000E+000	-4.6856e-05	3.7351	253173
1	0	0	1	0	0	1	14	109065	-0.0136	3.4061	-0.0136043	-0.00358722	0.13301	0.00135088	-0.139532	1	-0.289792	0.000850806	0.000500078	0.000000000000000E+000	0.000000000000000E+000	-4.10826e-06	0.139532	0.000000000000000E+000	0.139532	0.0000000E+000	0.0000000E+000	-0.0136	0.000000000000000E+000	-4.63375e-05	3.69589	250369
1	0	0	1	0	0	1	14	111570	-0.0136	3.36624	-0.0136042	-0.00172231	0.123541	0.00138297	-0.149001	1	-0.289544	0.000850806	0.000532166	0.000000000000000E+000	0.000000000000000E+000	-3.81581e-06	0.149001	0.000000000000000E+000	0.149001	0.0000000E+000	0.0000000E+000	-0.0136	0.000000000000000E+000	-4.57951e-05	3.65578	247440
1	0	0	1	0	0	1	14	112655	-0.0136	3.3263	-0.0136037	-0.000723485	0.119444	0.00139669	-0.153098	1	-0.289353	0.000850806	0.000545889	0.000000000000000E+000	0.000000000000000E+000	-3.68925e-06	0.153098	0.000000000000000E+000	0.153098	0.0000000E+000	0.0000000E+000	-0.0136	0.000000000000000E+000	-4.52501e-05	3.61565	244514
1	0	0	1	0	0	1	14	113155	-0.0136	3.28625	-0.0136044	-0.000363672	0.117554	0.00140295	-0.154988	1	-0.289238	0.000850806	0.000552143	0.000000000000000E+000	0.000000000000000E+000	-3.63087e-06	0.154988	0.000000000000000E+000	0.154988	0.0000000E+000	0.0000000E+000	-0.0136	0.000000000000000E+000	-4.47073e-05	3.57549	241559
1	0	0	1	0	0	1	14	113447	-0.0136	3.24614	-0.013604	-0.000239793	0.116449	0.00140656	-0.156093	1	-0.289238	0.000850806	0.000555753	0.000000000000000E+000	0.000000000000000E+000	-3.59675e-06	0.156093	0.000000000000000E+000	0.156093	0.0000000E+000	0.0000000E+000	-0.0136	0.000000000000000E+000	-4.41604e-05	3.53538	238617
1	0	0	1	0	0	1	14	113659	-0.0136	3.20617	-0.0136038	-0.000183544	0.115648	0.00140914	-0.156894	1	-0.289067	0.000850806	0.000558339	0.000000000000000E+000	0.000000000000000E+000	-3.572e-06	0.156894	0.000000000000000E+000	0.156894	0.0000000E+000	0.0000000E+000	-0.0136	0.000000000000000E+000	-4.3616e-05	3.49523	235682
1	0	0	1	0	0	1	14	113835	-0.0136	3.1661	-0.013604	-0.000156363	0.114982	0.00141127	-0.15756	1	-0.289009	0.000850806	0.00056046	0.000000000000000E+000	0.000000000000000E+000	-3.55144e-06	0.15756	0.000000000000000E+000	0.15756	0.0000000E+000	0.0000000E+000	-0.0136	0.000000000000000E+000	-4.30715e-05	3.45511	232733
1	0	0	1	0	0	1	14	113994	-0.0136	3.12599	-0.0136037	-0.000145056	0.114384	0.00141315	-0.158158	1	-0.289029	0.000850806	0.000562342	0.000000000000000E+000	0.000000000000000E+000	-3.53296e-06	0.158158	0.000000000000000E+000	0.158158	0.0000000E+000	0.0000000E+000	-0.0136	0.000000000000000E+000	-4.25251e-05	3.41502	229789
1	0	0	1	0	0	1	14	114139	-0.0136	3.08609	-0.0136036	-0.00013394	0.113833	0.00141486	-0.158709	1	-0.288857	0.000850806	0.000564052	0.000000000000000E+000	0.000000000000000E+000	-3.51596e-06	0.158709	0.000000000000000E+000	0.158709	0.0000000E+000	0.0000000E+000	-0.0136	0.000000000000000E+000	-4.19819e-05	3.37495	226858
1	0	0	1	0	0	1	14	114276	-0.0136	3.04595	-0.0136034	-0.000125183	0.113319	0.00141644	-0.159224	1	-0.288838	0.000850806	0.000565631	0.000000000000000E+000	0.000000000000000E+000	-3.50006e-06	0.159224	0.000000000000000E+000	0.159224	0.0000000E+000	0.0000000E+000	-0.0136	0.000000000000000E+000	-4.14352e-05	3.33478	223910
1	0	0	1	0	0	1	14	114403	-0.0136	3.00588	-0.0136038	-0.000117299	0.112837	0.00141789	-0.159705	1	-0.288742	0.000850806	0.000567087	0.000000000000000E+000	0.000000000000000E+000	-3.4852e-06	0.159705	0.000000000000000E+000	0.159705	0.0000000E+000	0.0000000E+000	-0.0136	0.000000000000000E+000	-4.08913e-05	3.29462	220959
1	0	0	1	0	0	1	14	114521	-0.0136	2.96586	-0.013604	-0.000109274	0.112389	0.00141923	-0.160153	1	-0.288666	0.000850806	0.000568425	0.000000000000000E+000	0.000000000000000E+000	-3.47136e-06	0.160153	0.000000000000000E+000	0.160153	0.0000000E+000	0.0000000E+000	-0.0136	0.000000000000000E+000	-4.03477e-05	3.25453	218013
1	0	0	1	0	0	1	14	114632	-0.0136	2.92587	-0.0136034	-0.000101562	0.11197	0.00142047	-0.160572	1	-0.288513	0.000850806	0.00056966	0.000000000000000E+000	0.000000000000000E+000	-3.45841e-06	0.160572	0.000000000000000E+000	0.160572	0.0000000E+000	0.0000000E+000	-0.0136	0.000000000000000E+000	-3.98018e-05	3.21438	215084
1	0	0	1	0	0	1	14	114736	-0.0136	2.8857	-0.0136037	-9.57511e-05	0.111577	0.00142161	-0.160965	1	-0.288532	0.000850806	0.000570803	0.000000000000000E+000	0.000000000000000E+000	-3.44626e-06	0.160965	0.000000000000000E+000	0.160965	0.0000000E+000	0.0000000E+000	-0.0136	0.000000000000000E+000	-3.92561e-05	3.17424	212127
1	0	0	1	0	0	1	14	114834	-0.0136	2.84569	-0.0136037	-8.96829e-05	0.111209	0.00142266	-0.161333	1	-0.288437	0.000850806	0.000571856	0.000000000000000E+000	0.000000000000000E+000	-3.43491e-06	0.161333	0.000000000000000E+000	0.161333	0.0000000E+000	0.0000000E+000	-0.0136	0.000000000000000E+000	-3.8712e-05	3.13413	209185
1	0	0	1	0	0	1	14	114926	-0.0136	2.80558	-0.0136035	-8.51327e-05	0.110862	0.00142364	-0.161681	1	-0.288418	0.000850806	0.000572839	0.000000000000000E+000	0.000000000000000E+000	-3.42417e-06	0.161681	0.000000000000000E+000	0.161681	0.0000000E+000	0.0000000E+000	-0.0136	0.000000000000000E+000	-3.81658e-05	3.094	206239
1	0	0	1	0	0	1	14	115012	-0.0136	2.76551	-0.0136033	-8.05297e-05	0.110534	0.00142456	-0.162008	1	-0.288323	0.000850806	0.000573752	0.000000000000000E+000	0.000000000000000E+000	-3.41405e-06	0.162008	0.000000000000000E+000	0.162008	0.0000000E+000	0.0000000E+000	-0.0136	0.000000000000000E+000	-3.76201e-05	3.05384	203298
1	0	0	1	0	0	1	14	115094	-0.0136	2.7255	-0.013604	-7.50917e-05	0.110225	0.00142541	-0.162317	1	-0.288151	0.000850806	0.000574601	0.000000000000000E+000	0.000000000000000E+000	-3.4045e-06	0.162317	0.000000000000000E+000	0.162317	0.0000000E+000	0.0000000E+000	-0.0136	0.000000000000000E+000	-3.70778e-05	3.01365	200345
1	1	0	0	1	0	2	14	115122	0.0136	2.71372	0.013424	-7.65774e-10	0.11012	0.00142569	-0.162422	1	-0.289168	0.000850806	0.000574885	0.000000000000000E+000	0.000000000000000E+000	-3.40127e-06	0.162422	0.000000000000000E+000	0.162422	59.5952	0.0000000E+000	0.0136	0.000000000000000E+000	3.6429e-05	3.00289	202154
1	1	0	0	0	0	2	14	115123	0.0136	2.75416	0.0136004	1.36455e-06	0.110125	0.0014257	4.59459e-06	2	-0.289009	1.25712e-08	0.000000000000000E+000	0.000000000000000E+000	0.000000000000000E+000	-3.40141e-06	0.000000000000000E+000	4.59459e-06	4.59459e-06	0.0000000E+000	0.0000000E+000	0.0136	1	3.74576e-05	3.04316	202506
1	1	0	0	0	0	2	14	115125	0.0136	2.79381	0.0136004	1.73175e-06	0.110131	0.00142572	1.09625e-05	2	-0.289563	3.02399e-08	0.000000000000000E+000	0.000000000000000E+000	0.000000000000000E+000	-3.40161e-06	0.000000000000000E+000	1.09625e-05	1.09625e-05	0.0000000E+000	0.0000000E+000	0.0136	1	3.79968e-05	3.08337	205421
1	1	0	0	0	0	2	14	115127	0.0136	2.83363	0.0136003	2.08309e-06	0.110139	0.00142574	1.8772e-05	2	-0.289906	5.22179e-08	0.000000000000000E+000	0.000000000000000E+000	0.000000000000000E+000	-3.40185e-06	0.000000000000000E+000	1.8772e-05	1.8772e-05	0.0000000E+000	0.0000000E+000	0.0136	1	3.85382e-05	3.12353	208350
1	1	0	0	0	0	2	14	115129	0.0136	2.87358	0.0136003	2.52132e-06	0.110148	0.00142577	2.81999e-05	2	-0.290173	7.9126e-08	0.000000000000000E+000	0.000000000000000E+000	0.000000000000000E+000	-3.40214e-06	0.000000000000000E+000	2.81999e-05	2.81999e-05	0.0000000E+000	0.0000000E+000	0.0136	1	3.90816e-05	3.16376	211288
1	1	0	0	0	0	2	14	115132	0.0136	2.91354	0.0135998	2.93084e-06	0.11016	0.0014258	3.93399e-05	2	-0.290383	1.11365e-07	0.000000000000000E+000	0.000000000000000E+000	0.000000000000000E+000	-3.40248e-06	0.000000000000000E+000	3.93399e-05	3.93399e-05	0.0000000E+000	0.0000000E+000	0.0136	1	3.96235e-05	3.20392	214234
1	1	0	0	0	0	2	14	115136	0.0136	2.95345	0.0136001	3.46955e-06	0.110173	0.00142584	5.23681e-05	2	-0.290593	1.49589e-07	0.000000000000000E+000	0.000000000000000E+000	0.000000000000000E+000	-3.40289e-06	0.000000000000000E+000	5.23681e-05	5.23681e-05	0.0000000E+000	0.0000000E+000	0.0136	1	4.01674e-05	3.24405	217164
1	1	0	0	0	0	2	14	115140	0.0136	2.99352	0.0136013	3.91231e-06	0.110188	0.00142589	6.73759e-05	2	-0.290727	1.94219e-07	0.000000000000000E+000	0.000000000000000E+000	0.000000000000000E+000	-3.40335e-06	0.000000000000000E+000	6.73759e-05	6.73759e-05	0.0000000E+000	0.0000000E+000	0.0136	1	4.07157e-05	3.28425	220092
1	1	0	0	0	0	2	14	115144	0.0136	3.03363	0.013601	4.50845e-06	0.110205	0.00142594	8.45922e-05	2	-0.290803	2.46106e-07	0.000000000000000E+000	0.000000000000000E+000	0.000000000000000E+000	-3.40388e-06	0.000000000000000E+000	8.45922e-05	8.45922e-05	0.0000000E+000	0.0000000E+000	0.0136	1	4.12603e-05	3.32444	223046
1	1	0	0	0	0	2	14	115149	0.0136	3.07372	0.0136008	5.00487e-06	0.110224	0.001426	0.000104029	2	-0.290918	3.05465e-07	0.000000000000000E+000	0.000000000000000E+000	0.000000000000000E+000	-3.40448e-06	0.000000000000000E+000	0.000104029	0.000104029	0.0000000E+000	0.0000000E+000	0.0136	1	4.1805e-05	3.36464	225996
1	1	0	0	0	0	2	14	115155	0.0136	3.11408	0.0136	5.73928e-06	0.110246	0.00142606	0.000126127	2	-0.290822	3.7384e-07	0.000000000000000E+000	0.000000000000000E+000	0.000000000000000E+000	-3.40517e-06	0.000000000000000E+000	0.000126127	0.000126127	0.0000000E+000	0.0000000E+000	0.0136	1	4.23514e-05	3.4049	228976
1	1	0	0	0	0	2	14	115162	0.0136	3.15422	0.0135998	6.61947e-06	0.110271	0.00142614	0.0001512	2	-0.29086	4.52429e-07	0.000000000000000E+000	0.000000000000000E+000	0.000000000000000E+000	-3.40594e-06	0.000000000000000E+000	0.0001512	0.0001512	0.0000000E+000	0.0000000E+000	0.0136	1	4.28968e-05	3.44508	231932
1	1	0	0	0	0	2	14	115170	0.0136	3.19469	0.0135997	7.81177e-06	0.110301	0.00142624	0.000180479	2	-0.290708	5.45389e-07	0.000000000000000E+000	0.000000000000000E+000	0.000000000000000E+000	-3.40684e-06	0.000000000000000E+000	0.000180479	0.000180479	0.0000000E+000	0.0000000E+000	0.0136	1	4.34468e-05	3.4854	234910
1	1	0	0	0	0	2	14	115179	0.0136	3.23494	0.0136004	9.69994e-06	0.110336	0.00142635	0.000216213	2	-0.290631	6.60289e-07	0.000000000000000E+000	0.000000000000000E+000	0.000000000000000E+000	-3.40795e-06	0.000000000000000E+000	0.000216213	0.000216213	0.0000000E+000	0.0000000E+000	0.0136	1	4.39964e-05	3.52557	237856
1	1	0	0	0	0	2	14	115192	0.0136	3.2755	0.0136003	1.44736e-05	0.110386	0.00142651	0.00026556	2	-0.290288	8.20985e-07	0.000000000000000E+000	0.000000000000000E+000	0.000000000000000E+000	-3.40947e-06	0.000000000000000E+000	0.00026556	0.00026556	0.0000000E+000	0.0000000E+000	0.0136	1	4.45477e-05	3.56579	240841
1	1	0	0	0	0	2	14	115216	0.0136	3.31582	0.0136009	3.04288e-05	0.110476	0.00142681	0.00035556	2	-0.290097	1.11783e-06	0.000000000000000E+000	0.000000000000000E+000	0.000000000000000E+000	-3.41225e-06	0.000000000000000E+000	0.00035556	0.00035556	0.0000000E+000	0.0000000E+000	0.0136	1	4.50981e-05	3.60592	243794
1	1	0	0	0	0	2	14	115308	0.0136	3.35635	0.0135997	0.000152606	0.110822	0.00142797	0.000701849	2	-0.289735	2.27502e-06	0.000000000000000E+000	0.000000000000000E+000	0.000000000000000E+000	-3.42295e-06	0.000000000000000E+000	0.000701849	0.000701849	0.0000000E+000	0.0000000E+000	0.0136	1	4.56455e-05	3.64608	246795
1	1	0	0	0	0	2	14	116165	0.0136	3.39709	0.0136004	0.00156898	0.11406	0.00143892	0.00393996	2	-0.2892	1.32319e-05	0.000000000000000E+000	0.000000000000000E+000	0.000000000000000E+000	-3.52296e-06	0.000000000000000E+000	0.00393996	0.00393996	0.0000000E+000	0.0000000E+000	0.0136	1	4.62019e-05	3.68629	249778
1	1	0	0	0	0	2	14	119999	0.0136	3.43576	0.0135999	0.00453338	0.128546	0.00148846	0.0184258	2	-0.2892	6.27646e-05	0.000000000000000E+000	0.000000000000000E+000	0.000000000000000E+000	-3.97038e-06	0.000000000000000E+000	0.0184258	0.0184258	0.0000000E+000	0.0000000E+000	0.0136	1	4.67259e-05	3.72496	252632
1	1	0	0	0	0	2	14	124799	0.0136	3.46711	0.0136003	0.0045334	0.14668	0.00155105	0.0365594	2	-0.289525	0.000125355	0.000000000000000E+000	0.000000000000000E+000	0.000000000000000E+000	-4.53047e-06	0.000000000000000E+000	0.0365594	0.0365594	0.0000000E+000	0.0000000E+000	0.0136	1	4.71536e-05	3.75664	254930
1	1	0	0	0	0	2	14	129599	0.0136	3.49747	0.013601	0.00453338	0.164813	0.00161419	0.054693	2	-0.289906	0.000188504	0.000000000000000E+000	0.000000000000000E+000	0.000000000000000E+000	-5.09057e-06	0.000000000000000E+000	0.054693	0.054693	0.0000000E+000	0.0000000E+000	0.0136	1	4.75689e-05	3.78738	257149
1	1	0	0	0	0	2	14	134399	0.0136	3.52989	0.0135997	0.00453336	0.182947	0.0016779	0.0728265	2	-0.290059	0.000252211	0.000000000000000E+000	0.000000000000000E+000	0.000000000000000E+000	-5.65065e-06	0.000000000000000E+000	0.0728265	0.0728265	0.0000000E+000	0.0000000E+000	0.0136	1	4.80056e-05	3.81995	259556
1	1	0	0	0	0	2	14	138976	0.0136	3.56847	0.0136001	0.00400416	0.200236	0.00173925	0.0901162	2	-0.290498	0.000313557	0.000000000000000E+000	0.000000000000000E+000	0.000000000000000E+000	-6.18468e-06	0.000000000000000E+000	0.0901162	0.0901162	0.0000000E+000	0.0000000E+000	0.0136	1	4.85316e-05	3.85897	262385
1	1	0	0	0	0	2	14	142612	0.0136	3.60873	0.0136003	0.00313288	0.213974	0.00178853	0.103854	2	-0.290441	0.00036284	0.000000000000000E+000	0.000000000000000E+000	0.000000000000000E+000	-6.60898e-06	0.000000000000000E+000	0.103854	0.103854	0.0000000E+000	0.0000000E+000	0.0136	1	4.90799e-05	3.89917	265342
1	1	0	0	0	0	2	14	145531	0.0136	3.64901	0.013601	0.00258836	0.225001	0.00182854	0.114881	2	-0.290307	0.000402849	0.000000000000000E+000	0.000000000000000E+000	0.000000000000000E+000	-6.94959e-06	0.000000000000000E+000	0.114881	0.114881	0.0000000E+000	0.0000000E+000	0.0136	1	4.963e-05	3.93932	268291
1	1	0	0	0	0	2	14	148055	0.0136	3.68902	0.0136008	0.00228187	0.234534	0.00186351	0.124414	2	-0.290383	0.000437819	0.000000000000000E+000	0.000000000000000E+000	0.000000000000000E+000	-7.24403e-06	0.000000000000000E+000	0.124414	0.124414	0.0000000E+000	0.0000000E+000	0.0136	1	5.01738e-05	3.97941	271235
1	1	0	0	0	0	2	14	150382	0.0136	3.72911	0.0135992	0.00216843	0.243328	0.00189612	0.133207	2	-0.290383	0.000470431	0.000000000000000E+000	0.000000000000000E+000	0.000000000000000E+000	-7.51563e-06	0.000000000000000E+000	0.133207	0.133207	0.0000000E+000	0.0000000E+000	0.0136	1	5.07131e-05	4.01949	274215
1	1	0	0	0	0	2	14	152600	0.0136	3.7692	0.0136003	0.00205933	0.251707	0.00192754	0.141587	2	-0.290402	0.000501845	0.000000000000000E+000	0.000000000000000E+000	0.000000000000000E+000	-7.77446e-06	0.000000000000000E+000	0.141587	0.141587	0.0000000E+000	0.0000000E+000	0.0136	1	5.12623e-05	4.0596	277141
1	1	0	0	0	0	2	14	154728	0.0136	3.80906	0.0135997	0.00197446	0.259745	0.00195799	0.149624	2	-0.290631	0.000532297	0.000000000000000E+000	0.000000000000000E+000	0.000000000000000E+000	-8.0227e-06	0.000000000000000E+000	0.149624	0.149624	0.0000000E+000	0.0000000E+000	0.0136	1	5.1802e-05	4.09969	280085
1	1	0	0	0	0	2	14	156779	0.0136	3.84932	0.0136004	0.00191558	0.267494	0.00198766	0.157374	2	-0.290517	0.00056197	0.000000000000000E+000	0.000000000000000E+000	0.000000000000000E+000	-8.26207e-06	0.000000000000000E+000	0.157374	0.157374	0.0000000E+000	0.0000000E+000	0.0136	1	5.23525e-05	4.13984	283029
1	1	0	0	0	0	2	14	158805	0.0136	3.88947	0.0136003	0.00192629	0.275147	0.00201727	0.165026	2	-0.290479	0.000591577	0.000000000000000E+000	0.000000000000000E+000	0.000000000000000E+000	-8.49842e-06	0.000000000000000E+000	0.165026	0.165026	0.0000000E+000	0.0000000E+000	0.0136	1	5.2898e-05	4.17995	285984
1	1	0	0	0	0	2	14	159848	0.0136	3.90964	0.0136009	7.55605e-10	0.279086	0.00203263	0.168966	2	-0.290231	0.00060694	0.000000000000000E+000	0.000000000000000E+000	0.000000000000000E+000	-8.6201e-06	0.000000000000000E+000	0.168966	0.168966	0.0000000E+000	0.0000000E+000	0.0136	1	5.31745e-05	4.19987	287454
2	1	0	1	0	0	3	14	159938	3.90981	3.9092	0.00754194	6.64093e-05	0.279313	0.00203352	0.169192	2	-0.290231	0.000607824	0.000000000000000E+000	0.000000000000000E+000	0.000000000000000E+000	-8.62709e-06	0.000000000000000E+000	0.169192	0.169192	0.0000000E+000	3.90981	0.0000000E+000	1	2.94829e-05	4.19943	518328
2	1	0	1	0	0	3	14	160058	3.90981	3.90916	0.00543379	4.7114e-05	0.279525	0.00203434	0.169404	2	-0.290231	0.000608653	0.000000000000000E+000	0.000000000000000E+000	0.000000000000000E+000	-8.63364e-06	0.000000000000000E+000	0.169404	0.169404	0.0000000E+000	3.90981	0.0000000E+000	1	2.12416e-05	4.19939	719416
2	1	0	1	0	0	3	14	160178	3.90981	3.90908	0.00433687	3.71312e-05	0.279686	0.00203498	0.169566	2	-0.29004	0.000609285	0.000000000000000E+000	0.000000000000000E+000	0.000000000000000E+000	-8.63863e-06	0.000000000000000E+000	0.169566	0.169566	0.0000000E+000	3.90981	0.0000000E+000	1	1.69532e-05	4.19912	901360
2	1	0	1	0	0	3	14	160298	3.90981	3.90914	0.00367315	3.21864e-05	0.279822	0.00203551	0.169701	2	-0.290135	0.000609815	0.000000000000000E+000	0.000000000000000E+000	0.000000000000000E+000	-8.64282e-06	0.000000000000000E+000	0.169701	0.169701	0.0000000E+000	3.90981	0.0000000E+000	1	1.43589e-05	4.19927	1.06425e+06
2	1	0	1	0	0	3	14	160418	3.90981	3.90903	0.00339711	2.89764e-05	0.279942	0.00203598	0.169822	2	-0.290097	0.000610284	0.000000000000000E+000	0.000000000000000E+000	0.000000000000000E+000	-8.64653e-06	0.000000000000000E+000	0.169822	0.169822	0.0000000E+000	3.90981	0.0000000E+000	1	1.32794e-05	4.19912	1.15069e+06
2	1	0	1	0	0	3	14	160538	3.90981	3.90893	0.00325476	2.65262e-05	0.280051	0.0020364	0.169931	2	-0.290116	0.000610712	0.000000000000000E+000	0.000000000000000E+000	0.000000000000000E+000	-8.6499e-06	0.000000000000000E+000	0.169931	0.169931	0.0000000E+000	3.90981	0.0000000E+000	1	1.27226e-05	4.19905	1.20099e+06
2	1	0	1	0	0	3	14	160658	3.90981	3.90901	0.00289334	2.44668e-05	0.280152	0.0020368	0.170032	2	-0.29025	0.000611107	0.000000000000000E+000	0.000000000000000E+000	0.000000000000000E+000	-8.65303e-06	0.000000000000000E+000	0.170032	0.170032	0.0000000E+000	3.90981	0.0000000E+000	1	1.13101e-05	4.19926	1.35104e+06
2	1	0	1	0	0	3	14	160748	3.90981	3.90908	0.00284884	2.38879e-05	0.280224	0.00203708	0.170104	2	-0.290192	0.000611389	0.000000000000000E+000	0.000000000000000E+000	0.000000000000000E+000	-8.65526e-06	0.000000000000000E+000	0.170104	0.170104	0.0000000E+000	3.90981	0.0000000E+000	1	1.11363e-05	4.19927	1.37217e+06