File: Analyzed Data/239/239_230502_C05.mpt
EC-Lab ASCII FILE
Nb header lines : 95

Modulo Bat

Run on channel : 5 (SN 55168)
User : Mitch
CE vs. WE compliance from -10 V to 10 V
Electrode connection : standard
Potential control : Ewe
Ewe ctrl range : min = -10.00 V, max = 10.00 V
Safety Limits :
	Do not start on E overload
Acquisition started on : 05/02/2023 14:35:43.272
Technique started on : 05/02/2023 14:35:43.272
Loaded Setting File :  C:\Users\OEMS\Documents\EC-Lab\Data\Mitch\Protocols\AMIDR Form.mps
Saved on :
	File : 239_230502_C05.mpr
	Directory : C:\Users\OEMS\Documents\EC-Lab\Data\Mitch\Results\Formation\
	Host : 192.168.1.58
Device : VMP-3e (SN .003109)
Address : USB
EC-Lab for windows v11.43 (software)
Internet server v11.40 (firmware)
Command interpretor v11.40 (firmware)
Electrode material :
Initial state :
Electrolyte :
Comments :
Mass of active material : 1.317 mg
 at x = 0.000
Molecular weight of active material (at x = 0) : 0.001 g/mol
Atomic weight of intercalated ion : 0.001 g/mol
Acquisition started at : xo = 0.000
Number of e- transfered per intercalated ion : 1
for DX = 1, DQ = 35297.575 mA.h
Battery capacity : 0.296 mA.h
Electrode surface area : 0.001 cm²
Characteristic mass : 0.001 g
Volume (V) : 0.001 cm³
Record Ece
Cycle Definition : Charge/Discharge alternance
Ns                  0                   1                   2                   3
ctrl_type           CC                  CC                  CC                  CV
Apply I/C           C / N               C / N               C / N               C / N
current/potential   current             current             current             current
ctrl1_val           60.000              60.000              60.000              0.000
ctrl1_val_unit      µA                  µA                  µA                  V
ctrl1_val_vs        <None>              <None>              <None>              Emeas
ctrl2_val
ctrl2_val_unit
ctrl2_val_vs
ctrl3_val
ctrl3_val_unit
ctrl3_val_vs
N                   20.00               20.00               20.00               20.00
charge/discharge    Charge              Discharge           Charge              Charge
charge/discharge_1  Charge              Charge              Charge              Charge
Apply I/C_1         I                   I                   I                   I
N1                  0.00                0.00                0.00                0.00
ctrl4_val
ctrl4_val_unit
ctrl_seq            0                   0                   0                   0
ctrl_repeat         0                   0                   0                   0
ctrl_trigger        Falling Edge        Falling Edge        Falling Edge        Falling Edge
ctrl_TO_t           0.000               0.000               0.000               0.000
ctrl_TO_t_unit      d                   d                   d                   d
ctrl_Nd             6                   6                   6                   6
ctrl_Na             2                   2                   2                   2
ctrl_corr           0                   0                   0                   0
lim_nb              1                   1                   1                   1
lim1_type           Ewe-Ece             Ewe-Ece             Ewe-Ece             Time
lim1_comp           >                   <                   >                   >
lim1_Q              Q limit             Q limit             Q limit             Q limit
lim1_value          4.200               3.000               4.200               15.000
lim1_value_unit     V                   V                   V                   mn
lim1_action         Next sequence       Next sequence       Next sequence       Next sequence
lim1_seq            1                   2                   3                   4
rec_nb              2                   2                   2                   1
rec1_type           Time                Time                Time                Time
rec1_value          20.000              20.000              20.000              30.000
rec1_value_unit     mn                  mn                  mn                  s
rec2_type           Ewe-Ece             Ewe-Ece             Ewe-Ece             Ewe-Ece
rec2_value          0.010               0.010               0.010               0.010
rec2_value_unit     V                   V                   V                   V
E range min (V)     -10.000             -10.000             -10.000             -10.000
E range max (V)     10.000              10.000              10.000              10.000
I Range             10 µA               10 µA               10 µA               10 µA
I Range min         Unset               Unset               Unset               Unset
I Range max         Unset               Unset               Unset               Unset
I Range init        Unset               Unset               Unset               Unset
auto rest           0                   0                   0                   0
Bandwidth           5                   5                   5                   5

mode	ox/red	error	control changes	Ns changes	counter inc.	Ns	I Range	time/s	control/V/mA	Ewe/V	I/mA	dq/mA.h	(Q-Qo)/mA.h	|Energy|/W.h	Q charge/discharge/mA.h	half cycle	Ece/V	Energy charge/W.h	Energy discharge/W.h	Capacitance charge/µF	Capacitance discharge/µF	x	Q discharge/mA.h	Q charge/mA.h	Capacity/mA.h	Efficiency/%	control/V	control/mA	cycle number	P/W	Ewe-Ece/V	R/Ohm
1	1	0	1	0	0	0	14	0.000000000000000E+000	0.0148	2.73394	0.0147168	0.000000000000000E+000	0.000000000000000E+000	0.000000000000000E+000	0.000000000000000E+000	0	-0.309397	0.000000000000000E+000	0.000000000000000E+000	0.000000000000000E+000	0.000000000000000E+000	0.000000000000000E+000	0.000000000000000E+000	0.000000000000000E+000	0.000000000000000E+000	0.0000000E+000	0.0000000E+000	0.0148	0.000000000000000E+000	4.0235e-05	3.04334	185770
1	1	0	1	0	0	0	14	0.8128	0.0148	2.76241	0.0148018	1.28038e-06	3.34199e-06	9.18656e-09	3.34199e-06	0	-0.311088	9.18656e-09	0.000000000000000E+000	0.000000000000000E+000	0.000000000000000E+000	-9.46803e-11	0.000000000000000E+000	3.34199e-06	3.34199e-06	0.0000000E+000	0.0000000E+000	0.0148	0.000000000000000E+000	4.08886e-05	3.07349	186626
1	1	0	1	0	0	0	14	1.8306	0.0148	2.79274	0.0148021	1.42758e-06	7.52687e-06	2.08108e-08	7.52687e-06	0	-0.310859	2.08108e-08	0.000000000000000E+000	0.000000000000000E+000	0.000000000000000E+000	-2.1324e-10	0.000000000000000E+000	7.52687e-06	7.52687e-06	0.0000000E+000	0.0000000E+000	0.0148	0.000000000000000E+000	4.13383e-05	3.10359	188672
1	1	0	1	0	0	0	14	2.935	0.0148	2.82295	0.0148014	1.55175e-06	1.20678e-05	3.35615e-08	1.20678e-05	0	-0.310859	3.35615e-08	0.000000000000000E+000	0.000000000000000E+000	0.000000000000000E+000	-3.41888e-10	0.000000000000000E+000	1.20678e-05	1.20678e-05	0.0000000E+000	0.0000000E+000	0.0148	0.000000000000000E+000	4.17836e-05	3.13381	190722
1	1	0	1	0	0	0	14	4.1442	0.0148	2.85326	0.0148016	1.69401e-06	1.70397e-05	4.76728e-08	1.70397e-05	0	-0.310802	4.76728e-08	0.000000000000000E+000	0.000000000000000E+000	0.000000000000000E+000	-4.82743e-10	0.000000000000000E+000	1.70397e-05	1.70397e-05	0.0000000E+000	0.0000000E+000	0.0148	0.000000000000000E+000	4.22327e-05	3.16406	192768
1	1	0	1	0	0	0	14	5.4754	0.0148	2.88357	0.0148021	1.89795e-06	2.25131e-05	6.33738e-08	2.25131e-05	0	-0.310687	6.33738e-08	0.000000000000000E+000	0.000000000000000E+000	0.000000000000000E+000	-6.37809e-10	0.000000000000000E+000	2.25131e-05	2.25131e-05	0.0000000E+000	0.0000000E+000	0.0148	0.000000000000000E+000	4.2683e-05	3.19426	194808
1	1	0	1	0	0	0	14	6.9564	0.0148	2.91381	0.0148016	2.09613e-06	2.86025e-05	8.10262e-08	2.86025e-05	0	-0.310554	8.10262e-08	0.000000000000000E+000	0.000000000000000E+000	0.000000000000000E+000	-8.10325e-10	0.000000000000000E+000	2.86025e-05	2.86025e-05	0.0000000E+000	0.0000000E+000	0.0148	0.000000000000000E+000	4.31289e-05	3.22436	196858
1	1	0	1	0	0	0	14	8.6264	0.0148	2.94404	0.0148021	2.39957e-06	3.5469e-05	1.01139e-07	3.5469e-05	0	-0.310535	1.01139e-07	0.000000000000000E+000	0.000000000000000E+000	0.000000000000000E+000	-1.00486e-09	0.000000000000000E+000	3.5469e-05	3.5469e-05	0.0000000E+000	0.0000000E+000	0.0148	0.000000000000000E+000	4.35781e-05	3.25458	198893
1	1	0	1	0	0	0	14	10.537	0.0148	2.97433	0.0148026	2.72686e-06	4.33247e-05	1.24388e-07	4.33247e-05	0	-0.310382	1.24388e-07	0.000000000000000E+000	0.000000000000000E+000	0.000000000000000E+000	-1.22741e-09	0.000000000000000E+000	4.33247e-05	4.33247e-05	0.0000000E+000	0.0000000E+000	0.0148	0.000000000000000E+000	4.40278e-05	3.28471	200933
1	1	0	1	0	0	0	14	12.7238	0.0148	3.00445	0.0148019	3.16434e-06	5.23161e-05	1.51269e-07	5.23161e-05	0	-0.310363	1.51269e-07	0.000000000000000E+000	0.000000000000000E+000	0.000000000000000E+000	-1.48215e-09	0.000000000000000E+000	5.23161e-05	5.23161e-05	0.0000000E+000	0.0000000E+000	0.0148	0.000000000000000E+000	4.44718e-05	3.31482	202977
1	1	0	1	0	0	0	14	15.238	0.0148	3.0348	0.0148014	3.59442e-06	6.26537e-05	1.82487e-07	6.26537e-05	0	-0.310153	1.82487e-07	0.000000000000000E+000	0.000000000000000E+000	0.000000000000000E+000	-1.77501e-09	0.000000000000000E+000	6.26537e-05	6.26537e-05	0.0000000E+000	0.0000000E+000	0.0148	0.000000000000000E+000	4.49194e-05	3.34495	205034
1	1	0	1	0	0	0	14	18.1364	0.0148	3.0649	0.014803	4.12728e-06	7.45709e-05	2.18834e-07	7.45709e-05	0	-0.310134	2.18834e-07	0.000000000000000E+000	0.000000000000000E+000	0.000000000000000E+000	-2.11264e-09	0.000000000000000E+000	7.45709e-05	7.45709e-05	0.0000000E+000	0.0000000E+000	0.0148	0.000000000000000E+000	4.53696e-05	3.37504	207046
1	1	0	1	0	0	0	14	21.4568	0.0148	3.0951	0.0148029	4.79336e-06	8.82232e-05	2.60885e-07	8.82232e-05	0	-0.309981	2.60885e-07	0.000000000000000E+000	0.000000000000000E+000	0.000000000000000E+000	-2.49941e-09	0.000000000000000E+000	8.82232e-05	8.82232e-05	0.0000000E+000	0.0000000E+000	0.0148	0.000000000000000E+000	4.58164e-05	3.40508	209087
1	1	0	1	0	0	0	14	25.2292	0.0148	3.12524	0.0148025	5.39448e-06	0.000103734	3.09127e-07	0.000103734	0	-0.310096	3.09127e-07	0.000000000000000E+000	0.000000000000000E+000	0.000000000000000E+000	-2.93884e-09	0.000000000000000E+000	0.000103734	0.000103734	0.0000000E+000	0.0000000E+000	0.0148	0.000000000000000E+000	4.62612e-05	3.43533	211130
1	1	0	1	0	0	0	14	29.4636	0.0148	3.15536	0.0148018	6.01944e-06	0.000121144	3.63803e-07	0.000121144	0	-0.310096	3.63803e-07	0.000000000000000E+000	0.000000000000000E+000	0.000000000000000E+000	-3.43209e-09	0.000000000000000E+000	0.000121144	0.000121144	0.0000000E+000	0.0000000E+000	0.0148	0.000000000000000E+000	4.6705e-05	3.46545	213174
1	1	0	1	0	0	0	14	34.149	0.0148	3.18544	0.0148032	6.69046e-06	0.000140409	4.24882e-07	0.000140409	0	-0.310134	4.24882e-07	0.000000000000000E+000	0.000000000000000E+000	0.000000000000000E+000	-3.97786e-09	0.000000000000000E+000	0.000140409	0.000140409	0.0000000E+000	0.0000000E+000	0.0148	0.000000000000000E+000	4.71546e-05	3.49557	215186
1	1	0	1	0	0	0	14	39.3354	0.0148	3.21552	0.014802	7.32529e-06	0.000161734	4.93133e-07	0.000161734	0	-0.310134	4.93133e-07	0.000000000000000E+000	0.000000000000000E+000	0.000000000000000E+000	-4.582e-09	0.000000000000000E+000	0.000161734	0.000161734	0.0000000E+000	0.0000000E+000	0.0148	0.000000000000000E+000	4.75962e-05	3.52565	217235
1	1	0	1	0	0	0	14	45.0746	0.0148	3.24543	0.0148018	8.17558e-06	0.000185331	5.69369e-07	0.000185331	0	-0.310306	5.69369e-07	0.000000000000000E+000	0.000000000000000E+000	0.000000000000000E+000	-5.25053e-09	0.000000000000000E+000	0.000185331	0.000185331	0.0000000E+000	0.0000000E+000	0.0148	0.000000000000000E+000	4.80383e-05	3.55574	219259
1	1	0	1	0	0	0	14	51.7366	0.0148	3.27555	0.0148021	9.62287e-06	0.000212723	6.58686e-07	0.000212723	0	-0.310325	6.58686e-07	0.000000000000000E+000	0.000000000000000E+000	0.000000000000000E+000	-6.02655e-09	0.000000000000000E+000	0.000212723	0.000212723	0.0000000E+000	0.0000000E+000	0.0148	0.000000000000000E+000	4.84852e-05	3.58588	221289
1	1	0	1	0	0	0	14	60.1794	0.0148	3.30552	0.0148022	1.27666e-05	0.000247436	7.72931e-07	0.000247436	0	-0.310535	7.72931e-07	0.000000000000000E+000	0.000000000000000E+000	0.000000000000000E+000	-7.01001e-09	0.000000000000000E+000	0.000247436	0.000247436	0.0000000E+000	0.0000000E+000	0.0148	0.000000000000000E+000	4.8929e-05	3.61605	223313
1	1	0	1	0	0	0	14	73.5818	0.0148	3.3353	0.0148021	2.27184e-05	0.000302542	9.55982e-07	0.000302542	0	-0.310859	9.55982e-07	0.000000000000000E+000	0.000000000000000E+000	0.000000000000000E+000	-8.57119e-09	0.000000000000000E+000	0.000302542	0.000302542	0.0000000E+000	0.0000000E+000	0.0148	0.000000000000000E+000	4.93693e-05	3.64615	225326
1	1	0	1	0	0	0	14	115.079	0.0148	3.3648	0.0148016	8.97686e-05	0.000473163	1.52821e-06	0.000473163	0	-0.311431	1.52821e-06	0.000000000000000E+000	0.000000000000000E+000	0.000000000000000E+000	-1.3405e-08	0.000000000000000E+000	0.000473163	0.000473163	0.0000000E+000	0.0000000E+000	0.0148	0.000000000000000E+000	4.98044e-05	3.67624	227328
1	1	0	1	0	0	0	14	1529.7	0.0148	3.38983	0.0148023	0.00493389	0.00628947	2.12318e-05	0.00628947	0	-0.313891	2.12318e-05	0.000000000000000E+000	0.000000000000000E+000	0.000000000000000E+000	-1.78184e-07	0.000000000000000E+000	0.00628947	0.00628947	0.0000000E+000	0.0000000E+000	0.0148	0.000000000000000E+000	5.01772e-05	3.70372	229008
1	1	0	1	0	0	0	14	5129.7	0.0148	3.39174	0.0148028	0.00493387	0.021091	7.1389e-05	0.021091	0	-0.316085	7.1389e-05	0.000000000000000E+000	0.000000000000000E+000	0.000000000000000E+000	-5.97521e-07	0.000000000000000E+000	0.021091	0.021091	0.0000000E+000	0.0000000E+000	0.0148	0.000000000000000E+000	5.02074e-05	3.70782	229128
1	1	0	1	0	0	0	14	8729.7	0.0148	3.41049	0.0148016	0.00493389	0.0358927	0.000121721	0.0358927	0	-0.316771	0.000121721	0.000000000000000E+000	0.000000000000000E+000	0.000000000000000E+000	-1.01686e-06	0.000000000000000E+000	0.0358927	0.0358927	0.0000000E+000	0.0000000E+000	0.0148	0.000000000000000E+000	5.04808e-05	3.72726	230413
1	1	0	1	0	0	0	14	12329.7	0.0148	3.43449	0.0148021	0.00493381	0.0506942	0.000172376	0.0506942	0	-0.316943	0.000172376	0.000000000000000E+000	0.000000000000000E+000	0.000000000000000E+000	-1.43619e-06	0.000000000000000E+000	0.0506942	0.0506942	0.0000000E+000	0.0000000E+000	0.0148	0.000000000000000E+000	5.08375e-05	3.75143	232027
1	1	0	1	0	0	0	14	15929.7	0.0148	3.46075	0.0148018	0.00493377	0.0654955	0.000223401	0.0654955	0	-0.316791	0.000223401	0.000000000000000E+000	0.000000000000000E+000	0.000000000000000E+000	-1.85552e-06	0.000000000000000E+000	0.0654955	0.0654955	0.0000000E+000	0.0000000E+000	0.0148	0.000000000000000E+000	5.12255e-05	3.77754	233806
1	1	0	1	0	0	0	14	19269.9	0.0148	3.49112	0.0148013	0.00419057	0.0792288	0.000271126	0.0792288	0	-0.316523	0.000271126	0.000000000000000E+000	0.000000000000000E+000	0.000000000000000E+000	-2.2446e-06	0.000000000000000E+000	0.0792288	0.0792288	0.0000000E+000	0.0000000E+000	0.0148	0.000000000000000E+000	5.16732e-05	3.80765	235866
1	1	0	1	0	0	0	14	21781.8	0.0148	3.52113	0.0148012	0.00312903	0.0895564	0.000307325	0.0895563	0	-0.316562	0.000307325	0.000000000000000E+000	0.000000000000000E+000	0.000000000000000E+000	-2.53718e-06	0.000000000000000E+000	0.0895563	0.0895563	0.0000000E+000	0.0000000E+000	0.0148	0.000000000000000E+000	5.21169e-05	3.83769	237895
1	1	0	1	0	0	0	14	23827.4	0.0148	3.55142	0.0148013	0.00267628	0.0979669	0.000337062	0.0979669	0	-0.316371	0.000337062	0.000000000000000E+000	0.000000000000000E+000	0.000000000000000E+000	-2.77546e-06	0.000000000000000E+000	0.0979669	0.0979669	0.0000000E+000	0.0000000E+000	0.0148	0.000000000000000E+000	5.25657e-05	3.86779	239939
1	1	0	1	0	0	0	14	25688.6	0.0148	3.5815	0.0148011	0.0025057	0.105619	0.000364351	0.105619	0	-0.316371	0.000364351	0.000000000000000E+000	0.000000000000000E+000	0.000000000000000E+000	-2.99225e-06	0.000000000000000E+000	0.105619	0.105619	0.0000000E+000	0.0000000E+000	0.0148	0.000000000000000E+000	5.301e-05	3.89787	241976
1	1	0	1	0	0	0	14	27528.1	0.0148	3.61183	0.014801	0.00252142	0.113182	0.000391551	0.113182	0	-0.316161	0.000391551	0.000000000000000E+000	0.000000000000000E+000	0.000000000000000E+000	-3.20652e-06	0.000000000000000E+000	0.113182	0.113182	0.0000000E+000	0.0000000E+000	0.0148	0.000000000000000E+000	5.34587e-05	3.92799	244026
1	1	0	1	0	0	0	14	29433	0.0148	3.64205	0.0148017	0.00265298	0.121014	0.000419955	0.121014	0	-0.315989	0.000419955	0.000000000000000E+000	0.000000000000000E+000	0.000000000000000E+000	-3.42839e-06	0.000000000000000E+000	0.121014	0.121014	0.0000000E+000	0.0000000E+000	0.0148	0.000000000000000E+000	5.39084e-05	3.95804	246056
1	1	0	1	0	0	0	14	31458.8	0.0148	3.67228	0.0148011	0.00287475	0.129343	0.000450416	0.129343	0	-0.315818	0.000450416	0.000000000000000E+000	0.000000000000000E+000	0.000000000000000E+000	-3.66436e-06	0.000000000000000E+000	0.129343	0.129343	0.0000000E+000	0.0000000E+000	0.0148	0.000000000000000E+000	5.43539e-05	3.9881	248108
1	1	0	1	0	0	0	14	33605.3	0.0148	3.70242	0.0148009	0.00298483	0.138168	0.000482955	0.138168	0	-0.31578	0.000482955	0.000000000000000E+000	0.000000000000000E+000	0.000000000000000E+000	-3.91438e-06	0.000000000000000E+000	0.138168	0.138168	0.0000000E+000	0.0000000E+000	0.0148	0.000000000000000E+000	5.4799e-05	4.0182	250149
1	1	0	1	0	0	0	14	35839.1	0.0148	3.73275	0.0148018	0.00309597	0.147352	0.000517097	0.147352	0	-0.315532	0.000517097	0.000000000000000E+000	0.000000000000000E+000	0.000000000000000E+000	-4.17458e-06	0.000000000000000E+000	0.147352	0.147352	0.0000000E+000	0.0000000E+000	0.0148	0.000000000000000E+000	5.52512e-05	4.04828	252183
1	1	0	1	0	0	0	14	38066.7	0.0148	3.76296	0.0148011	0.00304579	0.156511	0.000551419	0.156511	0	-0.315398	0.000551419	0.000000000000000E+000	0.000000000000000E+000	0.000000000000000E+000	-4.43404e-06	0.000000000000000E+000	0.156511	0.156511	0.0000000E+000	0.0000000E+000	0.0148	0.000000000000000E+000	5.56961e-05	4.07836	254235
1	1	0	1	0	0	0	14	40234.7	0.0148	3.79318	0.0148016	0.00295245	0.165424	0.000585093	0.165424	0	-0.315303	0.000585093	0.000000000000000E+000	0.000000000000000E+000	0.000000000000000E+000	-4.68657e-06	0.000000000000000E+000	0.165424	0.165424	0.0000000E+000	0.0000000E+000	0.0148	0.000000000000000E+000	5.61452e-05	4.10848	256268
1	1	0	1	0	0	0	14	42323.8	0.0148	3.82318	0.0148002	0.00284011	0.174014	0.000617799	0.174014	0	-0.31536	0.000617799	0.000000000000000E+000	0.000000000000000E+000	0.000000000000000E+000	-4.9299e-06	0.000000000000000E+000	0.174014	0.174014	0.0000000E+000	0.0000000E+000	0.0148	0.000000000000000E+000	5.6584e-05	4.13854	258319
1	1	0	1	0	0	0	14	44415.6	0.0148	3.85319	0.0148012	0.00288563	0.182614	0.000650807	0.182614	0	-0.315417	0.000650807	0.000000000000000E+000	0.000000000000000E+000	0.000000000000000E+000	-5.17355e-06	0.000000000000000E+000	0.182614	0.182614	0.0000000E+000	0.0000000E+000	0.0148	0.000000000000000E+000	5.7032e-05	4.16861	260329
1	1	0	1	0	0	0	14	46840.4	0.0148	3.8831	0.0148011	0.00368326	0.192583	0.000689376	0.192583	0	-0.315589	0.000689376	0.000000000000000E+000	0.000000000000000E+000	0.000000000000000E+000	-5.456e-06	0.000000000000000E+000	0.192583	0.192583	0.0000000E+000	0.0000000E+000	0.0148	0.000000000000000E+000	5.74742e-05	4.19869	262352
1	0	0	0	1	0	1	14	47006.5	-0.0148	3.88393	-0.0144813	8.40037e-10	0.193266	0.000692028	0.193266	0	-0.313963	0.000692028	0.000000000000000E+000	0.000000000000000E+000	0.000000000000000E+000	-5.47534e-06	0.000000000000000E+000	0.193266	0.193266	0.0000000E+000	0.0000000E+000	-0.0148	0.000000000000000E+000	-5.62444e-05	4.19789	268202
1	0	0	0	0	0	1	14	47287.9	-0.0148	3.85716	-0.014802	-0.000963502	0.192109	0.000696499	-0.00115726	1	-0.31063	0.000692028	4.47067e-06	0.000000000000000E+000	0.000000000000000E+000	-5.44255e-06	0.00115726	0.000000000000000E+000	0.00115726	0.0000000E+000	0.0000000E+000	-0.0148	0.000000000000000E+000	-5.70938e-05	4.16779	260583
1	0	0	0	0	0	1	14	48171.1	-0.0148	3.82695	-0.014802	-0.0012331	0.188478	0.000710451	-0.0047886	1	-0.310782	0.000692028	1.84227e-05	0.000000000000000E+000	0.000000000000000E+000	-5.33968e-06	0.0047886	0.000000000000000E+000	0.0047886	0.0000000E+000	0.0000000E+000	-0.0148	0.000000000000000E+000	-5.66466e-05	4.13773	258542
1	0	0	0	0	0	1	14	49086.4	-0.0148	3.79698	-0.0148024	-0.00127049	0.184714	0.000724798	-0.00855202	1	-0.310668	0.000692028	3.27694e-05	0.000000000000000E+000	0.000000000000000E+000	-5.23306e-06	0.00855202	0.000000000000000E+000	0.00855202	0.0000000E+000	0.0000000E+000	-0.0148	0.000000000000000E+000	-5.62042e-05	4.10765	256512
1	0	0	0	0	0	1	14	50055.1	-0.0148	3.76701	-0.0148023	-0.00137008	0.180731	0.000739861	-0.012535	1	-0.310554	0.000692028	4.78332e-05	0.000000000000000E+000	0.000000000000000E+000	-5.12022e-06	0.012535	0.000000000000000E+000	0.012535	0.0000000E+000	0.0000000E+000	-0.0148	0.000000000000000E+000	-5.57604e-05	4.07756	254488
1	0	0	0	0	0	1	14	51117.6	-0.0148	3.73704	-0.0148028	-0.00151209	0.176362	0.000756253	-0.0169038	1	-0.310477	0.000692028	6.42246e-05	0.000000000000000E+000	0.000000000000000E+000	-4.99645e-06	0.0169038	0.000000000000000E+000	0.0169038	0.0000000E+000	0.0000000E+000	-0.0148	0.000000000000000E+000	-5.53187e-05	4.04752	252455
1	0	0	0	0	0	1	14	52330.6	-0.0148	3.70711	-0.0148029	-0.00172566	0.171375	0.000774818	-0.0218916	1	-0.310325	0.000692028	8.27894e-05	0.000000000000000E+000	0.000000000000000E+000	-4.85514e-06	0.0218916	0.000000000000000E+000	0.0218916	0.0000000E+000	0.0000000E+000	-0.0148	0.000000000000000E+000	-5.48759e-05	4.01744	250432
1	0	0	0	0	0	1	14	53658.6	-0.0148	3.67713	-0.014802	-0.00185287	0.165914	0.000794978	-0.0273519	1	-0.31021	0.000692028	0.00010295	0.000000000000000E+000	0.000000000000000E+000	-4.70045e-06	0.0273519	0.000000000000000E+000	0.0273519	0.0000000E+000	0.0000000E+000	-0.0148	0.000000000000000E+000	-5.44287e-05	3.98734	248421
1	0	0	0	0	0	1	14	55018.2	-0.0148	3.64724	-0.0148021	-0.0018559	0.160324	0.000815452	-0.0329421	1	-0.31002	0.000692028	0.000123424	0.000000000000000E+000	0.000000000000000E+000	-4.54207e-06	0.0329421	0.000000000000000E+000	0.0329421	0.0000000E+000	0.0000000E+000	-0.0148	0.000000000000000E+000	-5.39868e-05	3.95726	246400
1	0	0	0	0	0	1	14	56343.2	-0.0148	3.61723	-0.0148026	-0.00179282	0.154876	0.000835242	-0.0383903	1	-0.309943	0.000692028	0.000143214	0.000000000000000E+000	0.000000000000000E+000	-4.38772e-06	0.0383903	0.000000000000000E+000	0.0383903	0.0000000E+000	0.0000000E+000	-0.0148	0.000000000000000E+000	-5.35445e-05	3.92717	244364
1	0	0	0	0	0	1	14	57636.2	-0.0148	3.58726	-0.0148014	-0.00175999	0.14956	0.000854395	-0.0437066	1	-0.309791	0.000692028	0.000162366	0.000000000000000E+000	0.000000000000000E+000	-4.23711e-06	0.0437066	0.000000000000000E+000	0.0437066	0.0000000E+000	0.0000000E+000	-0.0148	0.000000000000000E+000	-5.30965e-05	3.89705	242360
1	0	0	0	0	0	1	14	58940.7	-0.0148	3.55733	-0.0148023	-0.00181533	0.144196	0.000873556	-0.0490703	1	-0.309676	0.000692028	0.000181527	0.000000000000000E+000	0.000000000000000E+000	-4.08515e-06	0.0490703	0.000000000000000E+000	0.0490703	0.0000000E+000	0.0000000E+000	-0.0148	0.000000000000000E+000	-5.26567e-05	3.86701	240323
1	0	0	0	0	0	1	14	60338.9	-0.0148	3.52735	-0.0148023	-0.0019842	0.138447	0.00089392	-0.0548193	1	-0.3096	0.000692028	0.000201892	0.000000000000000E+000	0.000000000000000E+000	-3.92228e-06	0.0548193	0.000000000000000E+000	0.0548193	0.0000000E+000	0.0000000E+000	-0.0148	0.000000000000000E+000	-5.22128e-05	3.83695	238297
1	0	0	0	0	0	1	14	61990.8	-0.0148	3.4973	-0.0148024	-0.00243884	0.131655	0.000917774	-0.0616116	1	-0.309543	0.000692028	0.000225746	0.000000000000000E+000	0.000000000000000E+000	-3.72985e-06	0.0616116	0.000000000000000E+000	0.0616116	0.0000000E+000	0.0000000E+000	-0.0148	0.000000000000000E+000	-5.17686e-05	3.80685	236266
1	0	0	0	0	0	1	14	64173.6	-0.0148	3.46749	-0.0148028	-0.00334705	0.12268	0.000949024	-0.0705867	1	-0.309314	0.000692028	0.000256996	0.000000000000000E+000	0.000000000000000E+000	-3.47558e-06	0.0705867	0.000000000000000E+000	0.0705867	0.0000000E+000	0.0000000E+000	-0.0148	0.000000000000000E+000	-5.13286e-05	3.7768	234246
1	0	0	0	0	0	1	14	67065.4	-0.0148	3.4376	-0.0148027	-0.00425506	0.110789	0.000990072	-0.0824773	1	-0.309104	0.000692028	0.000298044	0.000000000000000E+000	0.000000000000000E+000	-3.13871e-06	0.0824773	0.000000000000000E+000	0.0824773	0.0000000E+000	0.0000000E+000	-0.0148	0.000000000000000E+000	-5.08859e-05	3.7467	232227
1	0	0	0	0	0	1	14	70251.6	-0.0148	3.4079	-0.0148024	-0.0042601	0.0976881	0.00103492	-0.0955781	1	-0.308761	0.000692028	0.000342888	0.000000000000000E+000	0.000000000000000E+000	-2.76756e-06	0.0955781	0.000000000000000E+000	0.0955781	0.0000000E+000	0.0000000E+000	-0.0148	0.000000000000000E+000	-5.04449e-05	3.71666	230227
1	0	0	0	0	0	1	14	73098.1	-0.0148	3.37784	-0.014802	-0.00362122	0.0859838	0.00107464	-0.107282	1	-0.308665	0.000692028	0.000382608	0.000000000000000E+000	0.000000000000000E+000	-2.43597e-06	0.107282	0.000000000000000E+000	0.107282	0.0000000E+000	0.0000000E+000	-0.0148	0.000000000000000E+000	-4.99989e-05	3.6865	228201
1	0	0	0	0	0	1	14	75409.5	-0.0148	3.34804	-0.0148021	-0.00296423	0.0764802	0.0011066	-0.116786	1	-0.308379	0.000692028	0.000414574	0.000000000000000E+000	0.000000000000000E+000	-2.16673e-06	0.116786	0.000000000000000E+000	0.116786	0.0000000E+000	0.0000000E+000	-0.0148	0.000000000000000E+000	-4.9558e-05	3.65642	226187
1	0	0	0	0	0	1	14	77403.8	-0.0148	3.31807	-0.0148022	-0.00259748	0.0682802	0.00113394	-0.124986	1	-0.308284	0.000692028	0.00044191	0.000000000000000E+000	0.000000000000000E+000	-1.93442e-06	0.124986	0.000000000000000E+000	0.124986	0.0000000E+000	0.0000000E+000	-0.0148	0.000000000000000E+000	-4.91147e-05	3.62636	224161
1	0	0	0	0	0	1	14	79055.8	-0.0148	3.28803	-0.0148019	-0.00210502	0.0614875	0.00115638	-0.131779	1	-0.308265	0.000692028	0.000464352	0.000000000000000E+000	0.000000000000000E+000	-1.74198e-06	0.131779	0.000000000000000E+000	0.131779	0.0000000E+000	0.0000000E+000	-0.0148	0.000000000000000E+000	-4.86691e-05	3.59629	222135
1	0	0	0	0	0	1	14	80283.3	-0.0148	3.25804	-0.0148025	-0.00149643	0.0564402	0.00117291	-0.136826	1	-0.308131	0.000692028	0.000480877	0.000000000000000E+000	0.000000000000000E+000	-1.59898e-06	0.136826	0.000000000000000E+000	0.136826	0.0000000E+000	0.0000000E+000	-0.0148	0.000000000000000E+000	-4.82271e-05	3.56617	220101
1	0	0	0	0	0	1	14	81152.7	-0.0148	3.22773	-0.0148023	-0.00106081	0.0528654	0.0011845	-0.140401	1	-0.308169	0.000692028	0.000492474	0.000000000000000E+000	0.000000000000000E+000	-1.4977e-06	0.140401	0.000000000000000E+000	0.140401	0.0000000E+000	0.0000000E+000	-0.0148	0.000000000000000E+000	-4.77778e-05	3.5359	218056
1	0	0	0	0	0	1	14	81789.2	-0.0148	3.1978	-0.0148024	-0.000796518	0.0502486	0.00119291	-0.143018	1	-0.308017	0.000692028	0.000500884	0.000000000000000E+000	0.000000000000000E+000	-1.42357e-06	0.143018	0.000000000000000E+000	0.143018	0.0000000E+000	0.0000000E+000	-0.0148	0.000000000000000E+000	-4.7335e-05	3.50582	216033
1	0	0	0	0	0	1	14	82283	-0.0148	3.16763	-0.0148026	-0.000626208	0.0482181	0.00119938	-0.145048	1	-0.308093	0.000692028	0.000507348	0.000000000000000E+000	0.000000000000000E+000	-1.36605e-06	0.145048	0.000000000000000E+000	0.145048	0.0000000E+000	0.0000000E+000	-0.0148	0.000000000000000E+000	-4.68891e-05	3.47572	213991
1	0	0	0	0	0	1	14	82677.8	-0.0148	3.1376	-0.014803	-0.000503959	0.0465946	0.0012045	-0.146672	1	-0.308017	0.000692028	0.000512467	0.000000000000000E+000	0.000000000000000E+000	-1.32005e-06	0.146672	0.000000000000000E+000	0.146672	0.0000000E+000	0.0000000E+000	-0.0148	0.000000000000000E+000	-4.64459e-05	3.44562	211957
1	0	0	0	0	0	1	14	83000.6	-0.0148	3.10758	-0.0148026	-0.000414074	0.0452675	0.00120864	-0.147999	1	-0.307902	0.000692028	0.000516612	0.000000000000000E+000	0.000000000000000E+000	-1.28245e-06	0.147999	0.000000000000000E+000	0.147999	0.0000000E+000	0.0000000E+000	-0.0148	0.000000000000000E+000	-4.60002e-05	3.41548	209934
1	0	0	0	0	0	1	14	83265.1	-0.0148	3.07749	-0.0148026	-0.000339596	0.0441798	0.001212	-0.149086	1	-0.307845	0.000692028	0.000519976	0.000000000000000E+000	0.000000000000000E+000	-1.25164e-06	0.149086	0.000000000000000E+000	0.149086	0.0000000E+000	0.0000000E+000	-0.0148	0.000000000000000E+000	-4.5555e-05	3.38534	207902
1	0	0	0	0	0	1	14	83486.7	-0.0148	3.04741	-0.0148024	-0.000285739	0.0432687	0.0012148	-0.149998	1	-0.307826	0.000692028	0.000522767	0.000000000000000E+000	0.000000000000000E+000	-1.22583e-06	0.149998	0.000000000000000E+000	0.149998	0.0000000E+000	0.0000000E+000	-0.0148	0.000000000000000E+000	-4.51089e-05	3.35524	205874
1	0	0	0	0	0	1	14	83674.8	-0.0148	3.01729	-0.0148025	-0.000246308	0.0424952	0.00121714	-0.150771	1	-0.307826	0.000692028	0.000525113	0.000000000000000E+000	0.000000000000000E+000	-1.20391e-06	0.150771	0.000000000000000E+000	0.150771	0.0000000E+000	0.0000000E+000	-0.0148	0.000000000000000E+000	-4.46636e-05	3.32512	203836
1	0	0	0	0	0	1	14	83837.3	-0.0148	2.98738	-0.0148024	-0.000212041	0.041827	0.00121915	-0.151439	1	-0.307693	0.000692028	0.00052712	0.000000000000000E+000	0.000000000000000E+000	-1.18498e-06	0.151439	0.000000000000000E+000	0.151439	0.0000000E+000	0.0000000E+000	-0.0148	0.000000000000000E+000	-4.42205e-05	3.29508	201817
1	0	0	0	0	0	1	14	83980.8	-0.0148	2.9573	-0.0148024	-0.000190277	0.0412372	0.0012209	-0.152029	1	-0.307674	0.000692028	0.000528873	0.000000000000000E+000	0.000000000000000E+000	-1.16827e-06	0.152029	0.000000000000000E+000	0.152029	0.0000000E+000	0.0000000E+000	-0.0148	0.000000000000000E+000	-4.3775e-05	3.26498	199786
1	0	0	0	0	0	1	14	84109.2	-0.0148	2.92726	-0.0148027	-0.000170073	0.0407093	0.00122245	-0.152557	1	-0.307597	0.000692028	0.000530427	0.000000000000000E+000	0.000000000000000E+000	-1.15332e-06	0.152557	0.000000000000000E+000	0.152557	0.0000000E+000	0.0000000E+000	-0.0148	0.000000000000000E+000	-4.33314e-05	3.23486	197751
1	0	0	0	0	0	1	14	84226.6	-0.0148	2.89718	-0.0148025	-0.000155812	0.0402264	0.00122386	-0.15304	1	-0.307578	0.000692028	0.000531833	0.000000000000000E+000	0.000000000000000E+000	-1.13964e-06	0.15304	0.000000000000000E+000	0.15304	0.0000000E+000	0.0000000E+000	-0.0148	0.000000000000000E+000	-4.28854e-05	3.20475	195722
1	0	0	0	0	0	1	14	84334.9	-0.0148	2.8669	-0.0148028	-0.00014562	0.039781	0.00122514	-0.153485	1	-0.307635	0.000692028	0.000533117	0.000000000000000E+000	0.000000000000000E+000	-1.12702e-06	0.153485	0.000000000000000E+000	0.153485	0.0000000E+000	0.0000000E+000	-0.0148	0.000000000000000E+000	-4.24382e-05	3.17454	193673
1	0	0	0	0	0	1	14	84435	-0.0148	2.83688	-0.014802	-0.000135121	0.0393694	0.00122632	-0.153897	1	-0.307578	0.000692028	0.000534291	0.000000000000000E+000	0.000000000000000E+000	-1.11536e-06	0.153897	0.000000000000000E+000	0.153897	0.0000000E+000	0.0000000E+000	-0.0148	0.000000000000000E+000	-4.19914e-05	3.14446	191655
1	0	0	0	0	0	1	14	84529.9	-0.0148	2.80684	-0.0148023	-0.00012684	0.0389793	0.00122742	-0.154287	1	-0.30754	0.000692028	0.000535392	0.000000000000000E+000	0.000000000000000E+000	-1.10431e-06	0.154287	0.000000000000000E+000	0.154287	0.0000000E+000	0.0000000E+000	-0.0148	0.000000000000000E+000	-4.15476e-05	3.11438	189622
1	0	0	0	0	0	1	14	84619.3	-0.0148	2.77685	-0.014802	-0.000119288	0.0386118	0.00122845	-0.154654	1	-0.307426	0.000692028	0.000536418	0.000000000000000E+000	0.000000000000000E+000	-1.09389e-06	0.154654	0.000000000000000E+000	0.154654	0.0000000E+000	0.0000000E+000	-0.0148	0.000000000000000E+000	-4.1103e-05	3.08427	187599
1	0	0	0	0	0	1	14	84704.7	-0.0148	2.74667	-0.0148022	-0.000115455	0.0382608	0.00122942	-0.155005	1	-0.307502	0.000692028	0.000537387	0.000000000000000E+000	0.000000000000000E+000	-1.08395e-06	0.155005	0.000000000000000E+000	0.155005	0.0000000E+000	0.0000000E+000	-0.0148	0.000000000000000E+000	-4.06567e-05	3.05417	185559
1	0	0	0	0	0	1	14	84786.2	-0.0148	2.71659	-0.0148018	-0.000109732	0.0379256	0.00123033	-0.155341	1	-0.307464	0.000692028	0.000538303	0.000000000000000E+000	0.000000000000000E+000	-1.07445e-06	0.155341	0.000000000000000E+000	0.155341	0.0000000E+000	0.0000000E+000	-0.0148	0.000000000000000E+000	-4.02104e-05	3.02405	183531
1	0	0	0	0	0	1	14	84849.8	-0.0148	2.69233	-0.0148024	-4.5263e-05	0.0376638	0.00123104	-0.155602	1	-0.307426	0.000692028	0.000539011	0.000000000000000E+000	0.000000000000000E+000	-1.06704e-06	0.155602	0.000000000000000E+000	0.155602	0.0000000E+000	0.0000000E+000	-0.0148	0.000000000000000E+000	-3.98529e-05	2.99975	181884
1	1	0	1	0	0	2	14	84849.9	0.0148	2.69812	0.0148013	3.7414e-07	0.0376642	0.00123104	3.7414e-07	2	-0.311908	1.00846e-09	0.000000000000000E+000	0.000000000000000E+000	0.000000000000000E+000	-1.06705e-06	0.000000000000000E+000	3.7414e-07	3.7414e-07	0.0000000E+000	0.0000000E+000	0.0148	1	3.99357e-05	3.01003	182289
1	1	0	1	0	0	2	14	84850.5	0.0148	2.72818	0.0148011	9.19317e-07	0.0376667	0.00123105	2.86402e-06	2	-0.312003	7.76535e-09	0.000000000000000E+000	0.000000000000000E+000	0.000000000000000E+000	-1.06712e-06	0.000000000000000E+000	2.86402e-06	2.86402e-06	0.0000000E+000	0.0000000E+000	0.0148	1	4.03802e-05	3.04019	184323
1	1	0	1	0	0	2	14	84851.3	0.0148	2.7584	0.0148018	1.08294e-06	0.0376698	0.00123106	5.94758e-06	2	-0.311908	1.62256e-08	0.000000000000000E+000	0.000000000000000E+000	0.000000000000000E+000	-1.06721e-06	0.000000000000000E+000	5.94758e-06	5.94758e-06	0.0000000E+000	0.0000000E+000	0.0148	1	4.08293e-05	3.07031	186355
1	1	0	1	0	0	2	14	84852.2	0.0148	2.78871	0.0148012	1.27947e-06	0.0376734	0.00123107	9.58208e-06	2	-0.311889	2.6307e-08	0.000000000000000E+000	0.000000000000000E+000	0.000000000000000E+000	-1.06731e-06	0.000000000000000E+000	9.58208e-06	9.58208e-06	0.0000000E+000	0.0000000E+000	0.0148	1	4.12762e-05	3.1006	188411
1	1	0	1	0	0	2	14	84853.2	0.0148	2.81895	0.0148009	1.4834e-06	0.0376776	0.00123108	1.38062e-05	2	-0.311908	3.81516e-08	0.000000000000000E+000	0.000000000000000E+000	0.000000000000000E+000	-1.06743e-06	0.000000000000000E+000	1.38062e-05	1.38062e-05	0.0000000E+000	0.0000000E+000	0.0148	1	4.17228e-05	3.13085	190458
1	1	0	1	0	0	2	14	84854.4	0.0148	2.84914	0.0148012	1.70048e-06	0.0376825	0.00123109	1.86617e-05	2	-0.311831	5.19139e-08	0.000000000000000E+000	0.000000000000000E+000	0.000000000000000E+000	-1.06757e-06	0.000000000000000E+000	1.86617e-05	1.86617e-05	0.0000000E+000	0.0000000E+000	0.0148	1	4.21707e-05	3.16097	192494
1	1	0	1	0	0	2	14	84855.7	0.0148	2.87934	0.0148014	1.94552e-06	0.0376881	0.00123111	2.42713e-05	2	-0.311755	6.79829e-08	0.000000000000000E+000	0.000000000000000E+000	0.000000000000000E+000	-1.06772e-06	0.000000000000000E+000	2.42713e-05	2.42713e-05	0.0000000E+000	0.0000000E+000	0.0148	1	4.26182e-05	3.19109	194532
1	1	0	1	0	0	2	14	84857.3	0.0148	2.9094	0.0148015	2.20536e-06	0.0376944	0.00123113	3.0635e-05	2	-0.311736	8.64032e-08	0.000000000000000E+000	0.000000000000000E+000	0.000000000000000E+000	-1.0679e-06	0.000000000000000E+000	3.0635e-05	3.0635e-05	0.0000000E+000	0.0000000E+000	0.0148	1	4.30635e-05	3.22114	196561
1	1	0	1	0	0	2	14	84859.1	0.0148	2.93986	0.0148014	2.5943e-06	0.0377019	0.00123115	3.80906e-05	2	-0.311545	1.08209e-07	0.000000000000000E+000	0.000000000000000E+000	0.000000000000000E+000	-1.06812e-06	0.000000000000000E+000	3.80906e-05	3.80906e-05	0.0000000E+000	0.0000000E+000	0.0148	1	4.3514e-05	3.25141	198621
1	1	0	1	0	0	2	14	84861.2	0.0148	2.96993	0.0148013	2.94213e-06	0.0377104	0.00123117	4.65396e-05	2	-0.311584	1.33177e-07	0.000000000000000E+000	0.000000000000000E+000	0.000000000000000E+000	-1.06836e-06	0.000000000000000E+000	4.65396e-05	4.65396e-05	0.0000000E+000	0.0000000E+000	0.0148	1	4.39588e-05	3.28151	200653
1	1	0	1	0	0	2	14	84863.5	0.0148	3.00016	0.0148011	3.37711e-06	0.03772	0.0012312	5.6157e-05	2	-0.311545	1.61887e-07	0.000000000000000E+000	0.000000000000000E+000	0.000000000000000E+000	-1.06863e-06	0.000000000000000E+000	5.6157e-05	5.6157e-05	0.0000000E+000	0.0000000E+000	0.0148	1	4.44056e-05	3.31171	202699
1	1	0	1	0	0	2	14	84866.2	0.0148	3.0303	0.0148007	3.80881e-06	0.0377309	0.00123123	6.70991e-05	2	-0.311622	1.94882e-07	0.000000000000000E+000	0.000000000000000E+000	0.000000000000000E+000	-1.06894e-06	0.000000000000000E+000	6.70991e-05	6.70991e-05	0.0000000E+000	0.0000000E+000	0.0148	1	4.48507e-05	3.34192	204740
1	1	0	1	0	0	2	14	84869.1	0.0148	3.06061	0.0148017	4.29231e-06	0.0377432	0.00123127	7.93873e-05	2	-0.311603	2.32308e-07	0.000000000000000E+000	0.000000000000000E+000	0.000000000000000E+000	-1.06929e-06	0.000000000000000E+000	7.93873e-05	7.93873e-05	0.0000000E+000	0.0000000E+000	0.0148	1	4.53022e-05	3.37221	206774
1	1	0	1	0	0	2	14	84872.5	0.0148	3.09075	0.0148012	4.74456e-06	0.037757	0.00123131	9.3172e-05	2	-0.311526	2.74706e-07	0.000000000000000E+000	0.000000000000000E+000	0.000000000000000E+000	-1.06968e-06	0.000000000000000E+000	9.3172e-05	9.3172e-05	0.0000000E+000	0.0000000E+000	0.0148	1	4.5747e-05	3.40228	208817
1	1	0	1	0	0	2	14	84876.3	0.0148	3.12075	0.0148012	5.37361e-06	0.0377725	0.00123136	0.000108731	2	-0.31166	3.2303e-07	0.000000000000000E+000	0.000000000000000E+000	0.000000000000000E+000	-1.07012e-06	0.000000000000000E+000	0.000108731	0.000108731	0.0000000E+000	0.0000000E+000	0.0148	1	4.61911e-05	3.43241	210844
1	1	0	1	0	0	2	14	84880.7	0.0148	3.15093	0.0148019	6.26416e-06	0.0377905	0.00123142	0.000126708	2	-0.311774	3.79405e-07	0.000000000000000E+000	0.000000000000000E+000	0.000000000000000E+000	-1.07063e-06	0.000000000000000E+000	0.000126708	0.000126708	0.0000000E+000	0.0000000E+000	0.0148	1	4.66399e-05	3.46271	212873
1	1	0	1	0	0	2	14	84885.8	0.0148	3.18094	0.0148008	7.59704e-06	0.0378119	0.00123149	0.000148059	2	-0.311851	4.4701e-07	0.000000000000000E+000	0.000000000000000E+000	0.000000000000000E+000	-1.07123e-06	0.000000000000000E+000	0.000148059	0.000148059	0.0000000E+000	0.0000000E+000	0.0148	1	4.70804e-05	3.49279	214917
1	1	0	1	0	0	2	14	84892.5	0.0148	3.21106	0.0148004	1.01774e-05	0.0378393	0.00123157	0.000175497	2	-0.31187	5.3472e-07	0.000000000000000E+000	0.000000000000000E+000	0.000000000000000E+000	-1.07201e-06	0.000000000000000E+000	0.000175497	0.000175497	0.0000000E+000	0.0000000E+000	0.0148	1	4.75248e-05	3.52293	216958
1	1	0	1	0	0	2	14	84903.1	0.0148	3.24095	0.0148014	1.76536e-05	0.0378826	0.00123171	0.000218786	2	-0.312137	6.74433e-07	0.000000000000000E+000	0.000000000000000E+000	0.000000000000000E+000	-1.07324e-06	0.000000000000000E+000	0.000218786	0.000218786	0.0000000E+000	0.0000000E+000	0.0148	1	4.79707e-05	3.55309	218962
1	1	0	1	0	0	2	14	84931.1	0.0148	3.27069	0.0148009	5.70164e-05	0.0379981	0.00123209	0.000334292	2	-0.312518	1.05085e-06	0.000000000000000E+000	0.000000000000000E+000	0.000000000000000E+000	-1.07651e-06	0.000000000000000E+000	0.000334292	0.000334292	0.0000000E+000	0.0000000E+000	0.0148	1	4.84092e-05	3.5832	220978
1	1	0	1	0	0	2	14	85141.3	0.0148	3.30029	0.0148014	0.000542555	0.0388622	0.00123493	0.00119838	2	-0.312995	3.89461e-06	0.000000000000000E+000	0.000000000000000E+000	0.000000000000000E+000	-1.10099e-06	0.000000000000000E+000	0.00119838	0.00119838	0.0000000E+000	0.0000000E+000	0.0148	1	4.88491e-05	3.61329	222971
1	1	0	1	0	0	2	14	87814.4	0.0148	3.33014	0.0148009	0.00493371	0.0498522	0.0012714	0.0121884	2	-0.312709	4.03633e-05	0.000000000000000E+000	0.000000000000000E+000	0.000000000000000E+000	-1.41234e-06	0.000000000000000E+000	0.0121884	0.0121884	0.0000000E+000	0.0000000E+000	0.0148	1	4.9289e-05	3.64285	224997
1	1	0	1	0	0	2	14	90742	0.0148	3.36002	0.0148011	0.00370207	0.0618888	0.00131166	0.024225	2	-0.312881	8.06164e-05	0.000000000000000E+000	0.000000000000000E+000	0.000000000000000E+000	-1.75334e-06	0.000000000000000E+000	0.024225	0.024225	0.0000000E+000	0.0000000E+000	0.0148	1	4.97318e-05	3.6729	227012
1	1	0	1	0	0	2	14	93334.8	0.0148	3.39027	0.0148018	0.00362202	0.072549	0.00134763	0.0348852	2	-0.31269	0.000116596	0.000000000000000E+000	0.000000000000000E+000	0.000000000000000E+000	-2.05535e-06	0.000000000000000E+000	0.0348852	0.0348852	0.0000000E+000	0.0000000E+000	0.0148	1	5.0182e-05	3.70296	229045
1	1	0	1	0	0	2	14	96337.1	0.0148	3.42045	0.0148014	0.00440817	0.0848928	0.00138967	0.047229	2	-0.312633	0.000158634	0.000000000000000E+000	0.000000000000000E+000	0.000000000000000E+000	-2.40506e-06	0.000000000000000E+000	0.047229	0.047229	0.0000000E+000	0.0000000E+000	0.0148	1	5.06275e-05	3.73308	231089
1	1	0	1	0	0	2	14	99798.6	0.0148	3.45055	0.0148015	0.00482914	0.0991243	0.00143856	0.0614605	2	-0.312614	0.000207525	0.000000000000000E+000	0.000000000000000E+000	0.000000000000000E+000	-2.80825e-06	0.000000000000000E+000	0.0614605	0.0614605	0.0000000E+000	0.0000000E+000	0.0148	1	5.10733e-05	3.76316	233121
1	1	0	1	0	0	2	14	102948	0.0148	3.48071	0.0148007	0.00395844	0.112073	0.00148343	0.0744093	2	-0.312537	0.000252391	0.000000000000000E+000	0.000000000000000E+000	0.000000000000000E+000	-3.17509e-06	0.000000000000000E+000	0.0744093	0.0744093	0.0000000E+000	0.0000000E+000	0.0148	1	5.1517e-05	3.79324	235171
1	1	0	1	0	0	2	14	105317	0.0148	3.51077	0.0148016	0.00292284	0.121814	0.00151747	0.0841506	2	-0.312575	0.000286434	0.000000000000000E+000	0.000000000000000E+000	0.000000000000000E+000	-3.45107e-06	0.000000000000000E+000	0.0841506	0.0841506	0.0000000E+000	0.0000000E+000	0.0148	1	5.19649e-05	3.82334	237189
1	1	0	1	0	0	2	14	107129	0.0148	3.54089	0.0148008	0.00231234	0.129263	0.00154373	0.0915988	2	-0.312518	0.00031269	0.000000000000000E+000	0.000000000000000E+000	0.000000000000000E+000	-3.66208e-06	0.000000000000000E+000	0.0915988	0.0915988	0.0000000E+000	0.0000000E+000	0.0148	1	5.2408e-05	3.85341	239236
1	1	0	1	0	0	2	14	108705	0.0148	3.57103	0.0148011	0.00210386	0.135743	0.00156677	0.0980796	2	-0.312556	0.000335733	0.000000000000000E+000	0.000000000000000E+000	0.000000000000000E+000	-3.84569e-06	0.000000000000000E+000	0.0980796	0.0980796	0.0000000E+000	0.0000000E+000	0.0148	1	5.2855e-05	3.88358	241268
1	1	0	1	0	0	2	14	110193	0.0148	3.60126	0.0148019	0.00201776	0.141862	0.00158871	0.104198	2	-0.31248	0.000357673	0.000000000000000E+000	0.000000000000000E+000	0.000000000000000E+000	-4.01903e-06	0.000000000000000E+000	0.104198	0.104198	0.0000000E+000	0.0000000E+000	0.0148	1	5.33057e-05	3.91374	243296
1	1	0	1	0	0	2	14	111685	0.0148	3.63117	0.0148007	0.00206699	0.147996	0.00161089	0.110332	2	-0.312652	0.000379853	0.000000000000000E+000	0.000000000000000E+000	0.000000000000000E+000	-4.1928e-06	0.000000000000000E+000	0.110332	0.110332	0.0000000E+000	0.0000000E+000	0.0148	1	5.37438e-05	3.94382	245338
1	1	0	1	0	0	2	14	113245	0.0148	3.66133	0.0148012	0.00216147	0.15441	0.00163428	0.116746	2	-0.312594	0.000403239	0.000000000000000E+000	0.000000000000000E+000	0.000000000000000E+000	-4.37451e-06	0.000000000000000E+000	0.116746	0.116746	0.0000000E+000	0.0000000E+000	0.0148	1	5.41923e-05	3.97392	247366
1	1	0	1	0	0	2	14	114878	0.0148	3.69139	0.0148012	0.0022616	0.161122	0.00165895	0.123458	2	-0.312652	0.000427913	0.000000000000000E+000	0.000000000000000E+000	0.000000000000000E+000	-4.56467e-06	0.000000000000000E+000	0.123458	0.123458	0.0000000E+000	0.0000000E+000	0.0148	1	5.4637e-05	4.00404	249398
1	1	0	1	0	0	2	14	116509	0.0148	3.72144	0.0148012	0.00219879	0.167828	0.00168381	0.130164	2	-0.312652	0.000452766	0.000000000000000E+000	0.000000000000000E+000	0.000000000000000E+000	-4.75465e-06	0.000000000000000E+000	0.130164	0.130164	0.0000000E+000	0.0000000E+000	0.0148	1	5.50819e-05	4.03409	251427
1	1	0	1	0	0	2	14	118070	0.0148	3.75146	0.0148007	0.00210757	0.174245	0.00170778	0.136581	2	-0.312823	0.000476742	0.000000000000000E+000	0.000000000000000E+000	0.000000000000000E+000	-4.93646e-06	0.000000000000000E+000	0.136581	0.136581	0.0000000E+000	0.0000000E+000	0.0148	1	5.55244e-05	4.06428	253464
1	1	0	1	0	0	2	14	119519	0.0148	3.78152	0.0148009	0.00194838	0.180202	0.00173022	0.142538	2	-0.312881	0.000499177	0.000000000000000E+000	0.000000000000000E+000	0.000000000000000E+000	-5.10523e-06	0.000000000000000E+000	0.142538	0.142538	0.0000000E+000	0.0000000E+000	0.0148	1	5.59701e-05	4.0944	255492
1	1	0	1	0	0	2	14	120918	0.0148	3.81147	0.0148007	0.0019301	0.185955	0.00175206	0.148291	2	-0.312976	0.000521016	0.000000000000000E+000	0.000000000000000E+000	0.000000000000000E+000	-5.2682e-06	0.000000000000000E+000	0.148291	0.148291	0.0000000E+000	0.0000000E+000	0.0148	1	5.64124e-05	4.12445	257520
1	1	0	1	0	0	2	14	122364	0.0148	3.84159	0.0148014	0.00204049	0.1919	0.00177481	0.154237	2	-0.31309	0.000543767	0.000000000000000E+000	0.000000000000000E+000	0.000000000000000E+000	-5.43664e-06	0.000000000000000E+000	0.154237	0.154237	0.0000000E+000	0.0000000E+000	0.0148	1	5.68611e-05	4.15468	259542
1	1	0	1	0	0	2	14	123992	0.0148	3.87158	0.014802	0.00241247	0.198595	0.00180063	0.160932	2	-0.313148	0.000569589	0.000000000000000E+000	0.000000000000000E+000	0.000000000000000E+000	-5.62632e-06	0.000000000000000E+000	0.160932	0.160932	0.0000000E+000	0.0000000E+000	0.0148	1	5.73072e-05	4.18473	261558
1	1	0	1	0	0	2	14	125081	0.0148	3.88686	0.0148012	8.22292e-10	0.203071	0.00181799	0.165407	2	-0.312976	0.000586952	0.000000000000000E+000	0.000000000000000E+000	0.000000000000000E+000	-5.75311e-06	0.000000000000000E+000	0.165407	0.165407	0.0000000E+000	0.0000000E+000	0.0148	1	5.75304e-05	4.19983	262603
2	1	0	0	0	0	3	14	125141	3.88696	3.88787	0.015113	0.000129076	0.203338	0.00181903	0.165674	2	-0.313186	0.00058799	0.000000000000000E+000	0.000000000000000E+000	0.000000000000000E+000	-5.76068e-06	0.000000000000000E+000	0.165674	0.165674	0.0000000E+000	3.88696	0.0000000E+000	1	5.87573e-05	4.20105	257253
2	1	0	0	0	0	3	14	125231	3.88696	3.88785	0.0126215	0.000109697	0.203685	0.00182038	0.166021	2	-0.312671	0.00058934	0.000000000000000E+000	0.000000000000000E+000	0.000000000000000E+000	-5.77051e-06	0.000000000000000E+000	0.166021	0.166021	0.0000000E+000	3.88696	0.0000000E+000	1	4.90706e-05	4.20052	308033
2	1	0	0	0	0	3	14	125321	3.88696	3.88781	0.0113516	9.61459e-05	0.203986	0.00182155	0.166322	2	-0.312499	0.00059051	0.000000000000000E+000	0.000000000000000E+000	0.000000000000000E+000	-5.77904e-06	0.000000000000000E+000	0.166322	0.166322	0.0000000E+000	3.88696	0.0000000E+000	1	4.41328e-05	4.20031	342491
2	1	0	0	0	0	3	14	125411	3.88696	3.88796	0.0103478	8.61447e-05	0.204254	0.00182259	0.16659	2	-0.312308	0.000591551	0.000000000000000E+000	0.000000000000000E+000	0.000000000000000E+000	-5.78662e-06	0.000000000000000E+000	0.16659	0.16659	0.0000000E+000	3.88696	0.0000000E+000	1	4.0232e-05	4.20027	375727
2	1	0	0	0	0	3	14	125501	3.88696	3.88785	0.00938945	7.82197e-05	0.204496	0.00182353	0.166832	2	-0.312079	0.000592493	0.000000000000000E+000	0.000000000000000E+000	0.000000000000000E+000	-5.79349e-06	0.000000000000000E+000	0.166832	0.166832	0.0000000E+000	3.88696	0.0000000E+000	1	3.65048e-05	4.19993	414066
2	1	0	0	0	0	3	14	125591	3.88696	3.88791	0.00846344	7.219e-05	0.204718	0.0018244	0.167054	2	-0.312194	0.000593357	0.000000000000000E+000	0.000000000000000E+000	0.000000000000000E+000	-5.79978e-06	0.000000000000000E+000	0.167054	0.167054	0.0000000E+000	3.88696	0.0000000E+000	1	3.29051e-05	4.2001	459377
2	1	0	0	0	0	3	14	125681	3.88696	3.88774	0.00814591	6.68367e-05	0.204924	0.00182519	0.16726	2	-0.312003	0.000594156	0.000000000000000E+000	0.000000000000000E+000	0.000000000000000E+000	-5.8056e-06	0.000000000000000E+000	0.16726	0.16726	0.0000000E+000	3.88696	0.0000000E+000	1	3.16691e-05	4.19974	477262
2	1	0	0	0	0	3	14	125771	3.88696	3.88775	0.00730923	6.26191e-05	0.205115	0.00182594	0.167452	2	-0.311946	0.000594901	0.000000000000000E+000	0.000000000000000E+000	0.000000000000000E+000	-5.81104e-06	0.000000000000000E+000	0.167452	0.167452	0.0000000E+000	3.88696	0.0000000E+000	1	2.84165e-05	4.1997	531897
2	1	0	0	0	0	3	14	125861	3.88696	3.88781	0.00702389	5.87798e-05	0.205295	0.00182664	0.167632	2	-0.311812	0.000595601	0.000000000000000E+000	0.000000000000000E+000	0.000000000000000E+000	-5.81613e-06	0.000000000000000E+000	0.167632	0.167632	0.0000000E+000	3.88696	0.0000000E+000	1	2.73075e-05	4.19962	553513
2	1	0	0	0	0	3	14	125951	3.88696	3.88777	0.00660367	5.58111e-05	0.205466	0.0018273	0.167802	2	-0.311889	0.000596264	0.000000000000000E+000	0.000000000000000E+000	0.000000000000000E+000	-5.82096e-06	0.000000000000000E+000	0.167802	0.167802	0.0000000E+000	3.88696	0.0000000E+000	1	2.56736e-05	4.19966	588729
2	1	0	0	0	0	3	14	125981	3.88696	3.88787	0.00685612	5.49199e-05	0.205521	0.00182752	0.167857	2	-0.311774	0.000596477	0.000000000000000E+000	0.000000000000000E+000	0.000000000000000E+000	-5.82252e-06	0.000000000000000E+000	0.167857	0.167857	0.0000000E+000	3.88696	0.0000000E+000	1	2.66557e-05	4.19964	567066