File: Analyzed Data/243/243_230502_C06.mpt
EC-Lab ASCII FILE
Nb header lines : 95

Modulo Bat

Run on channel : 6 (SN 55238)
User : Mitch
CE vs. WE compliance from -10 V to 10 V
Electrode connection : standard
Potential control : Ewe
Ewe ctrl range : min = -10.00 V, max = 10.00 V
Safety Limits :
	Do not start on E overload
Acquisition started on : 05/02/2023 14:36:12.211
Technique started on : 05/02/2023 14:36:12.211
Loaded Setting File :  C:\Users\OEMS\Documents\EC-Lab\Data\Mitch\Protocols\AMIDR Form.mps
Saved on :
	File : 243_230502_C06.mpr
	Directory : C:\Users\OEMS\Documents\EC-Lab\Data\Mitch\Results\Formation\
	Host : 192.168.1.58
Device : VMP-3e (SN .003109)
Address : USB
EC-Lab for windows v11.43 (software)
Internet server v11.40 (firmware)
Command interpretor v11.40 (firmware)
Electrode material :
Initial state :
Electrolyte :
Comments :
Mass of active material : 1.259 mg
 at x = 0.000
Molecular weight of active material (at x = 0) : 0.001 g/mol
Atomic weight of intercalated ion : 0.001 g/mol
Acquisition started at : xo = 0.000
Number of e- transfered per intercalated ion : 1
for DX = 1, DQ = 33743.085 mA.h
Battery capacity : 0.283 mA.h
Electrode surface area : 0.001 cm²
Characteristic mass : 0.001 g
Volume (V) : 0.001 cm³
Record Ece
Cycle Definition : Charge/Discharge alternance
Ns                  0                   1                   2                   3
ctrl_type           CC                  CC                  CC                  CV
Apply I/C           C / N               C / N               C / N               C / N
current/potential   current             current             current             current
ctrl1_val           60.000              60.000              60.000              0.000
ctrl1_val_unit      µA                  µA                  µA                  V
ctrl1_val_vs        <None>              <None>              <None>              Emeas
ctrl2_val
ctrl2_val_unit
ctrl2_val_vs
ctrl3_val
ctrl3_val_unit
ctrl3_val_vs
N                   20.00               20.00               20.00               20.00
charge/discharge    Charge              Discharge           Charge              Charge
charge/discharge_1  Charge              Charge              Charge              Charge
Apply I/C_1         I                   I                   I                   I
N1                  0.00                0.00                0.00                0.00
ctrl4_val
ctrl4_val_unit
ctrl_seq            0                   0                   0                   0
ctrl_repeat         0                   0                   0                   0
ctrl_trigger        Falling Edge        Falling Edge        Falling Edge        Falling Edge
ctrl_TO_t           0.000               0.000               0.000               0.000
ctrl_TO_t_unit      d                   d                   d                   d
ctrl_Nd             6                   6                   6                   6
ctrl_Na             2                   2                   2                   2
ctrl_corr           0                   0                   0                   0
lim_nb              1                   1                   1                   1
lim1_type           Ewe-Ece             Ewe-Ece             Ewe-Ece             Time
lim1_comp           >                   <                   >                   >
lim1_Q              Q limit             Q limit             Q limit             Q limit
lim1_value          4.200               3.000               4.200               15.000
lim1_value_unit     V                   V                   V                   mn
lim1_action         Next sequence       Next sequence       Next sequence       Next sequence
lim1_seq            1                   2                   3                   4
rec_nb              2                   2                   2                   1
rec1_type           Time                Time                Time                Time
rec1_value          20.000              20.000              20.000              30.000
rec1_value_unit     mn                  mn                  mn                  s
rec2_type           Ewe-Ece             Ewe-Ece             Ewe-Ece             Ewe-Ece
rec2_value          0.010               0.010               0.010               0.010
rec2_value_unit     V                   V                   V                   V
E range min (V)     -10.000             -10.000             -10.000             -10.000
E range max (V)     10.000              10.000              10.000              10.000
I Range             10 µA               10 µA               10 µA               10 µA
I Range min         Unset               Unset               Unset               Unset
I Range max         Unset               Unset               Unset               Unset
I Range init        Unset               Unset               Unset               Unset
auto rest           0                   0                   0                   0
Bandwidth           5                   5                   5                   5

mode	ox/red	error	control changes	Ns changes	counter inc.	Ns	I Range	time/s	control/V/mA	Ewe/V	I/mA	dq/mA.h	(Q-Qo)/mA.h	|Energy|/W.h	Q charge/discharge/mA.h	half cycle	Ece/V	Energy charge/W.h	Energy discharge/W.h	Capacitance charge/µF	Capacitance discharge/µF	x	Q discharge/mA.h	Q charge/mA.h	Capacity/mA.h	Efficiency/%	control/V	control/mA	cycle number	P/W	Ewe-Ece/V	R/Ohm
1	1	0	1	0	0	0	14	0.000000000000000E+000	0.01415	1.32548	0.0140641	0.000000000000000E+000	0.000000000000000E+000	0.000000000000000E+000	0.000000000000000E+000	0	-0.317317	0.000000000000000E+000	0.000000000000000E+000	0.000000000000000E+000	0.000000000000000E+000	0.000000000000000E+000	0.000000000000000E+000	0.000000000000000E+000	0.000000000000000E+000	0.0000000E+000	0.0000000E+000	0.01415	0.000000000000000E+000	1.86417e-05	1.64279	94245.1
1	1	0	1	0	0	0	14	780.806	0.01415	1.36346	0.0141542	0.00126297	0.00306988	4.14724e-06	0.00306988	0	-0.319491	4.14724e-06	0.000000000000000E+000	0.000000000000000E+000	0.000000000000000E+000	-9.09779e-08	0.000000000000000E+000	0.00306988	0.00306988	0.0000000E+000	0.0000000E+000	0.01415	0.000000000000000E+000	1.92986e-05	1.68295	96328.7
1	1	0	1	0	0	0	14	1844.55	0.01415	1.40418	0.0141542	0.000933736	0.00725211	9.92963e-06	0.00725211	0	-0.318861	9.92963e-06	0.000000000000000E+000	0.000000000000000E+000	0.000000000000000E+000	-2.14921e-07	0.000000000000000E+000	0.00725211	0.00725211	0.0000000E+000	0.0000000E+000	0.01415	0.000000000000000E+000	1.9875e-05	1.72304	99205.6
1	1	0	1	0	0	0	14	2746.29	0.01415	1.44476	0.0141543	0.000880219	0.0107974	1.49788e-05	0.0107974	0	-0.318403	1.49788e-05	0.000000000000000E+000	0.000000000000000E+000	0.000000000000000E+000	-3.19989e-07	0.000000000000000E+000	0.0107974	0.0107974	0.0000000E+000	0.0000000E+000	0.01415	0.000000000000000E+000	2.04496e-05	1.76317	102072
1	1	0	1	0	0	0	14	3636.77	0.01415	1.48514	0.0141539	0.000860383	0.0142984	2.01063e-05	0.0142984	0	-0.318155	2.01063e-05	0.000000000000000E+000	0.000000000000000E+000	0.000000000000000E+000	-4.23743e-07	0.000000000000000E+000	0.0142984	0.0142984	0.0000000E+000	0.0000000E+000	0.01415	0.000000000000000E+000	2.10206e-05	1.80329	104928
1	1	0	1	0	0	0	14	4420.9	0.01415	1.52567	0.0141539	0.00069621	0.0173813	2.47442e-05	0.0173813	0	-0.317812	2.47442e-05	0.000000000000000E+000	0.000000000000000E+000	0.000000000000000E+000	-5.15107e-07	0.000000000000000E+000	0.0173813	0.0173813	0.0000000E+000	0.0000000E+000	0.01415	0.000000000000000E+000	2.15941e-05	1.84348	107791
1	1	0	1	0	0	0	14	5005.47	0.01415	1.56614	0.0141546	0.000505347	0.0196796	2.82941e-05	0.0196796	0	-0.317602	2.82941e-05	0.000000000000000E+000	0.000000000000000E+000	0.000000000000000E+000	-5.83219e-07	0.000000000000000E+000	0.0196796	0.0196796	0.0000000E+000	0.0000000E+000	0.01415	0.000000000000000E+000	2.21682e-05	1.88374	110645
1	1	0	1	0	0	0	14	5419.79	0.01415	1.6064	0.0141541	0.000361082	0.0213086	3.0876e-05	0.0213086	0	-0.317411	3.0876e-05	0.000000000000000E+000	0.000000000000000E+000	0.000000000000000E+000	-6.31494e-07	0.000000000000000E+000	0.0213086	0.0213086	0.0000000E+000	0.0000000E+000	0.01415	0.000000000000000E+000	2.27372e-05	1.92381	113493
1	1	0	1	0	0	0	14	5728.55	0.01415	1.64664	0.0141545	0.00027649	0.0225225	3.28492e-05	0.0225225	0	-0.317296	3.28492e-05	0.000000000000000E+000	0.000000000000000E+000	0.000000000000000E+000	-6.6747e-07	0.000000000000000E+000	0.0225225	0.0225225	0.0000000E+000	0.0000000E+000	0.01415	0.000000000000000E+000	2.33075e-05	1.96394	116333
1	1	0	1	0	0	0	14	5971.3	0.01415	1.68708	0.014154	0.000218897	0.0234769	3.44392e-05	0.0234769	0	-0.31701	3.44392e-05	0.000000000000000E+000	0.000000000000000E+000	0.000000000000000E+000	-6.95755e-07	0.000000000000000E+000	0.0234769	0.0234769	0.0000000E+000	0.0000000E+000	0.01415	0.000000000000000E+000	2.38789e-05	2.00409	119194
1	1	0	1	0	0	0	14	6172.2	0.01415	1.72709	0.0141541	0.00018385	0.0242668	3.57868e-05	0.0242668	0	-0.317068	3.57868e-05	0.000000000000000E+000	0.000000000000000E+000	0.000000000000000E+000	-7.19163e-07	0.000000000000000E+000	0.0242668	0.0242668	0.0000000E+000	0.0000000E+000	0.01415	0.000000000000000E+000	2.44454e-05	2.04416	122021
1	1	0	1	0	0	0	14	6343.19	0.01415	1.76739	0.0141539	0.00015988	0.0249391	3.6961e-05	0.0249391	0	-0.316953	3.6961e-05	0.000000000000000E+000	0.000000000000000E+000	0.000000000000000E+000	-7.39087e-07	0.000000000000000E+000	0.0249391	0.0249391	0.0000000E+000	0.0000000E+000	0.01415	0.000000000000000E+000	2.50155e-05	2.08435	124870
1	1	0	1	0	0	0	14	6491.06	0.01415	1.80752	0.0141538	0.000138951	0.0255204	3.79998e-05	0.0255204	0	-0.316972	3.79998e-05	0.000000000000000E+000	0.000000000000000E+000	0.000000000000000E+000	-7.56315e-07	0.000000000000000E+000	0.0255204	0.0255204	0.0000000E+000	0.0000000E+000	0.01415	0.000000000000000E+000	2.55832e-05	2.12449	127706
1	1	0	1	0	0	0	14	6620.55	0.01415	1.84788	0.0141542	0.000121098	0.0260295	3.89301e-05	0.0260295	0	-0.316743	3.89301e-05	0.000000000000000E+000	0.000000000000000E+000	0.000000000000000E+000	-7.71403e-07	0.000000000000000E+000	0.0260295	0.0260295	0.0000000E+000	0.0000000E+000	0.01415	0.000000000000000E+000	2.61552e-05	2.16462	130553
1	1	0	1	0	0	0	14	6735.2	0.01415	1.8882	0.0141541	0.000108028	0.0264803	3.97718e-05	0.0264803	0	-0.316686	3.97718e-05	0.000000000000000E+000	0.000000000000000E+000	0.000000000000000E+000	-7.84762e-07	0.000000000000000E+000	0.0264803	0.0264803	0.0000000E+000	0.0000000E+000	0.01415	0.000000000000000E+000	2.67257e-05	2.20488	133403
1	1	0	1	0	0	0	14	6836.77	0.01415	1.92838	0.0141546	9.56884e-05	0.0268796	4.05336e-05	0.0268796	0	-0.316667	4.05336e-05	0.000000000000000E+000	0.000000000000000E+000	0.000000000000000E+000	-7.96596e-07	0.000000000000000E+000	0.0268796	0.0268796	0.0000000E+000	0.0000000E+000	0.01415	0.000000000000000E+000	2.72956e-05	2.24505	136237
1	1	0	1	0	0	0	14	6927.64	0.01415	1.96847	0.0141539	8.62061e-05	0.0272369	4.12296e-05	0.0272369	0	-0.316686	4.12296e-05	0.000000000000000E+000	0.000000000000000E+000	0.000000000000000E+000	-8.07185e-07	0.000000000000000E+000	0.0272369	0.0272369	0.0000000E+000	0.0000000E+000	0.01415	0.000000000000000E+000	2.78617e-05	2.28516	139076
1	1	0	1	0	0	0	14	7009.55	0.01415	2.0087	0.0141534	7.81879e-05	0.027559	4.18699e-05	0.027559	0	-0.31661	4.18699e-05	0.000000000000000E+000	0.000000000000000E+000	0.000000000000000E+000	-8.16729e-07	0.000000000000000E+000	0.027559	0.027559	0.0000000E+000	0.0000000E+000	0.01415	0.000000000000000E+000	2.84298e-05	2.32531	141923
1	1	0	1	0	0	0	14	7083.62	0.01415	2.04892	0.0141539	7.03221e-05	0.0278502	4.24605e-05	0.0278502	0	-0.316514	4.24605e-05	0.000000000000000E+000	0.000000000000000E+000	0.000000000000000E+000	-8.25359e-07	0.000000000000000E+000	0.0278502	0.0278502	0.0000000E+000	0.0000000E+000	0.01415	0.000000000000000E+000	2.90002e-05	2.36543	144760
1	1	0	1	0	0	0	14	7151.29	0.01415	2.08897	0.0141536	6.43672e-05	0.0281162	4.30109e-05	0.0281162	0	-0.316571	4.30109e-05	0.000000000000000E+000	0.000000000000000E+000	0.000000000000000E+000	-8.33244e-07	0.000000000000000E+000	0.0281162	0.0281162	0.0000000E+000	0.0000000E+000	0.01415	0.000000000000000E+000	2.95665e-05	2.40554	147593
1	1	0	1	0	0	0	14	7213.38	0.01415	2.12933	0.0141535	5.97209e-05	0.0283603	4.35256e-05	0.0283603	0	-0.316457	4.35256e-05	0.000000000000000E+000	0.000000000000000E+000	0.000000000000000E+000	-8.40478e-07	0.000000000000000E+000	0.0283603	0.0283603	0.0000000E+000	0.0000000E+000	0.01415	0.000000000000000E+000	3.01375e-05	2.44579	150445
1	1	0	1	0	0	0	14	7270.73	0.01415	2.16953	0.0141545	5.50477e-05	0.0285858	4.40101e-05	0.0285858	0	-0.316476	4.40101e-05	0.000000000000000E+000	0.000000000000000E+000	0.000000000000000E+000	-8.4716e-07	0.000000000000000E+000	0.0285858	0.0285858	0.0000000E+000	0.0000000E+000	0.01415	0.000000000000000E+000	3.07087e-05	2.48601	153275
1	1	0	1	0	0	0	14	7323.67	0.01415	2.20962	0.0141536	5.07819e-05	0.028794	4.44658e-05	0.028794	0	-0.316476	4.44658e-05	0.000000000000000E+000	0.000000000000000E+000	0.000000000000000E+000	-8.53329e-07	0.000000000000000E+000	0.028794	0.028794	0.0000000E+000	0.0000000E+000	0.01415	0.000000000000000E+000	3.12742e-05	2.5261	156117
1	1	0	1	0	0	0	14	7373.06	0.01415	2.24975	0.0141541	4.74039e-05	0.0289881	4.48987e-05	0.0289881	0	-0.316476	4.48987e-05	0.000000000000000E+000	0.000000000000000E+000	0.000000000000000E+000	-8.59084e-07	0.000000000000000E+000	0.0289881	0.0289881	0.0000000E+000	0.0000000E+000	0.01415	0.000000000000000E+000	3.18433e-05	2.56623	158947
1	1	0	1	0	0	0	14	7419.39	0.01415	2.2899	0.0141542	4.45133e-05	0.0291703	4.53121e-05	0.0291703	0	-0.316457	4.53121e-05	0.000000000000000E+000	0.000000000000000E+000	0.000000000000000E+000	-8.64482e-07	0.000000000000000E+000	0.0291703	0.0291703	0.0000000E+000	0.0000000E+000	0.01415	0.000000000000000E+000	3.24117e-05	2.60636	161782
1	1	0	1	0	0	0	14	7463.06	0.01415	2.33009	0.0141534	4.19792e-05	0.029342	4.57087e-05	0.029342	0	-0.316419	4.57087e-05	0.000000000000000E+000	0.000000000000000E+000	0.000000000000000E+000	-8.69571e-07	0.000000000000000E+000	0.029342	0.029342	0.0000000E+000	0.0000000E+000	0.01415	0.000000000000000E+000	3.29786e-05	2.6465	164631
1	1	0	1	0	0	0	14	7504.25	0.01415	2.37025	0.014154	3.97899e-05	0.0295039	4.60892e-05	0.0295039	0	-0.316362	4.60892e-05	0.000000000000000E+000	0.000000000000000E+000	0.000000000000000E+000	-8.74369e-07	0.000000000000000E+000	0.0295039	0.0295039	0.0000000E+000	0.0000000E+000	0.01415	0.000000000000000E+000	3.35486e-05	2.68661	167461
1	1	0	1	0	0	0	14	7543.42	0.01415	2.4104	0.0141544	3.78478e-05	0.0296579	4.64573e-05	0.0296579	0	-0.316381	4.64573e-05	0.000000000000000E+000	0.000000000000000E+000	0.000000000000000E+000	-8.78933e-07	0.000000000000000E+000	0.0296579	0.0296579	0.0000000E+000	0.0000000E+000	0.01415	0.000000000000000E+000	3.41178e-05	2.72678	170293
1	1	0	1	0	0	0	14	7580.88	0.01415	2.45047	0.0141526	3.62962e-05	0.0298052	4.68152e-05	0.0298052	0	-0.316419	4.68152e-05	0.000000000000000E+000	0.000000000000000E+000	0.000000000000000E+000	-8.83298e-07	0.000000000000000E+000	0.0298052	0.0298052	0.0000000E+000	0.0000000E+000	0.01415	0.000000000000000E+000	3.46806e-05	2.76689	173146
1	1	0	1	0	0	0	14	7617.07	0.01415	2.49081	0.0141541	3.54164e-05	0.0299475	4.71668e-05	0.0299475	0	-0.316247	4.71668e-05	0.000000000000000E+000	0.000000000000000E+000	0.000000000000000E+000	-8.87516e-07	0.000000000000000E+000	0.0299475	0.0299475	0.0000000E+000	0.0000000E+000	0.01415	0.000000000000000E+000	3.52551e-05	2.80706	175978
1	1	0	1	0	0	0	14	7652.37	0.01415	2.53092	0.0141541	3.45075e-05	0.0300863	4.75152e-05	0.0300863	0	-0.316247	4.75152e-05	0.000000000000000E+000	0.000000000000000E+000	0.000000000000000E+000	-8.91628e-07	0.000000000000000E+000	0.0300863	0.0300863	0.0000000E+000	0.0000000E+000	0.01415	0.000000000000000E+000	3.58228e-05	2.84717	178812
1	1	0	1	0	0	0	14	7686.7	0.01415	2.57099	0.0141545	3.31125e-05	0.0302213	4.78595e-05	0.0302213	0	-0.316323	4.78595e-05	0.000000000000000E+000	0.000000000000000E+000	0.000000000000000E+000	-8.95628e-07	0.000000000000000E+000	0.0302213	0.0302213	0.0000000E+000	0.0000000E+000	0.01415	0.000000000000000E+000	3.63911e-05	2.88731	181637
1	1	0	1	0	0	0	14	7719.27	0.01415	2.61123	0.0141548	3.13936e-05	0.0303493	4.81913e-05	0.0303493	0	-0.316266	4.81913e-05	0.000000000000000E+000	0.000000000000000E+000	0.000000000000000E+000	-8.99424e-07	0.000000000000000E+000	0.0303493	0.0303493	0.0000000E+000	0.0000000E+000	0.01415	0.000000000000000E+000	3.69614e-05	2.9275	184477
1	1	0	1	0	0	0	14	7750.46	0.01415	2.65149	0.0141546	2.9975e-05	0.030472	4.85139e-05	0.030472	0	-0.316209	4.85139e-05	0.000000000000000E+000	0.000000000000000E+000	0.000000000000000E+000	-9.03058e-07	0.000000000000000E+000	0.030472	0.030472	0.0000000E+000	0.0000000E+000	0.01415	0.000000000000000E+000	3.75308e-05	2.9677	187324
1	1	0	1	0	0	0	14	7780.85	0.01415	2.6916	0.0141541	2.95841e-05	0.0305914	4.8833e-05	0.0305914	0	-0.316209	4.8833e-05	0.000000000000000E+000	0.000000000000000E+000	0.000000000000000E+000	-9.06598e-07	0.000000000000000E+000	0.0305914	0.0305914	0.0000000E+000	0.0000000E+000	0.01415	0.000000000000000E+000	3.80972e-05	3.00781	190165
1	1	0	1	0	0	0	14	7810.38	0.01415	2.73173	0.0141536	2.90156e-05	0.0307075	4.91478e-05	0.0307075	0	-0.316171	4.91478e-05	0.000000000000000E+000	0.000000000000000E+000	0.000000000000000E+000	-9.10039e-07	0.000000000000000E+000	0.0307075	0.0307075	0.0000000E+000	0.0000000E+000	0.01415	0.000000000000000E+000	3.86637e-05	3.0479	193007
1	1	0	1	0	0	0	14	7838.95	0.01415	2.77182	0.0141538	2.77158e-05	0.0308199	4.9457e-05	0.0308199	0	-0.316247	4.9457e-05	0.000000000000000E+000	0.000000000000000E+000	0.000000000000000E+000	-9.13369e-07	0.000000000000000E+000	0.0308199	0.0308199	0.0000000E+000	0.0000000E+000	0.01415	0.000000000000000E+000	3.92319e-05	3.08807	195836
1	1	0	1	0	0	0	14	7866.76	0.01415	2.81205	0.0141537	2.71143e-05	0.0309292	4.97622e-05	0.0309292	0	-0.316152	4.97622e-05	0.000000000000000E+000	0.000000000000000E+000	0.000000000000000E+000	-9.16609e-07	0.000000000000000E+000	0.0309292	0.0309292	0.0000000E+000	0.0000000E+000	0.01415	0.000000000000000E+000	3.98008e-05	3.1282	198679
1	1	0	1	0	0	0	14	7893.86	0.01415	2.85227	0.0141541	2.64711e-05	0.0310357	5.00639e-05	0.0310357	0	-0.316133	5.00639e-05	0.000000000000000E+000	0.000000000000000E+000	0.000000000000000E+000	-9.19766e-07	0.000000000000000E+000	0.0310357	0.0310357	0.0000000E+000	0.0000000E+000	0.01415	0.000000000000000E+000	4.03714e-05	3.1684	201515
1	1	0	1	0	0	0	14	7920.35	0.01415	2.89232	0.0141538	2.61675e-05	0.0311399	5.0363e-05	0.0311399	0	-0.31619	5.0363e-05	0.000000000000000E+000	0.000000000000000E+000	0.000000000000000E+000	-9.22852e-07	0.000000000000000E+000	0.0311399	0.0311399	0.0000000E+000	0.0000000E+000	0.01415	0.000000000000000E+000	4.09374e-05	3.20851	204349
1	1	0	1	0	0	0	14	7946.3	0.01415	2.93251	0.0141545	2.51609e-05	0.0312419	5.06602e-05	0.0312419	0	-0.316114	5.06602e-05	0.000000000000000E+000	0.000000000000000E+000	0.000000000000000E+000	-9.25876e-07	0.000000000000000E+000	0.0312419	0.0312419	0.0000000E+000	0.0000000E+000	0.01415	0.000000000000000E+000	4.15082e-05	3.24862	207178
1	1	0	1	0	0	0	14	7972	0.01415	2.97256	0.0141538	2.51138e-05	0.031343	5.09585e-05	0.031343	0	-0.316228	5.09585e-05	0.000000000000000E+000	0.000000000000000E+000	0.000000000000000E+000	-9.28871e-07	0.000000000000000E+000	0.031343	0.031343	0.0000000E+000	0.0000000E+000	0.01415	0.000000000000000E+000	4.20731e-05	3.28879	210018
1	1	0	1	0	0	0	14	7997.27	0.01415	3.01271	0.0141534	2.47985e-05	0.0314423	5.12558e-05	0.0314423	0	-0.316171	5.12558e-05	0.000000000000000E+000	0.000000000000000E+000	0.000000000000000E+000	-9.31815e-07	0.000000000000000E+000	0.0314423	0.0314423	0.0000000E+000	0.0000000E+000	0.01415	0.000000000000000E+000	4.264e-05	3.32888	212861
1	1	0	1	0	0	0	14	8022.34	0.01415	3.05278	0.0141536	2.49181e-05	0.0315409	5.15547e-05	0.0315409	0	-0.316266	5.15547e-05	0.000000000000000E+000	0.000000000000000E+000	0.000000000000000E+000	-9.34736e-07	0.000000000000000E+000	0.0315409	0.0315409	0.0000000E+000	0.0000000E+000	0.01415	0.000000000000000E+000	4.32079e-05	3.36904	215689
1	1	0	1	0	0	0	14	8047.45	0.01415	3.09302	0.0141539	2.47247e-05	0.0316396	5.1858e-05	0.0316396	0	-0.31619	5.1858e-05	0.000000000000000E+000	0.000000000000000E+000	0.000000000000000E+000	-9.37662e-07	0.000000000000000E+000	0.0316396	0.0316396	0.0000000E+000	0.0000000E+000	0.01415	0.000000000000000E+000	4.37785e-05	3.40921	218527
1	1	0	1	0	0	0	14	8072.76	0.01415	3.13315	0.0141538	2.50423e-05	0.0317391	5.21678e-05	0.0317391	0	-0.31619	5.21678e-05	0.000000000000000E+000	0.000000000000000E+000	0.000000000000000E+000	-9.40611e-07	0.000000000000000E+000	0.0317391	0.0317391	0.0000000E+000	0.0000000E+000	0.01415	0.000000000000000E+000	4.4346e-05	3.44934	221364
1	1	0	1	0	0	0	14	8098.77	0.01415	3.17328	0.0141531	2.59513e-05	0.0318414	5.24903e-05	0.0318414	0	-0.316228	5.24903e-05	0.000000000000000E+000	0.000000000000000E+000	0.000000000000000E+000	-9.43642e-07	0.000000000000000E+000	0.0318414	0.0318414	0.0000000E+000	0.0000000E+000	0.01415	0.000000000000000E+000	4.49116e-05	3.4895	224211
1	1	0	1	0	0	0	14	8126.08	0.01415	3.2135	0.0141539	2.74926e-05	0.0319488	5.28332e-05	0.0319488	0	-0.316285	5.28332e-05	0.000000000000000E+000	0.000000000000000E+000	0.000000000000000E+000	-9.46824e-07	0.000000000000000E+000	0.0319488	0.0319488	0.0000000E+000	0.0000000E+000	0.01415	0.000000000000000E+000	4.54835e-05	3.52979	227040
1	1	0	1	0	0	0	14	8155.96	0.01415	3.25372	0.0141541	3.10744e-05	0.0320662	5.32131e-05	0.0320662	0	-0.316247	5.32131e-05	0.000000000000000E+000	0.000000000000000E+000	0.000000000000000E+000	-9.50305e-07	0.000000000000000E+000	0.0320662	0.0320662	0.0000000E+000	0.0000000E+000	0.01415	0.000000000000000E+000	4.60537e-05	3.56997	229878
1	1	0	1	0	0	0	14	8193.68	0.01415	3.29374	0.0141546	4.28583e-05	0.0322145	5.36987e-05	0.0322145	0	-0.316438	5.36987e-05	0.000000000000000E+000	0.000000000000000E+000	0.000000000000000E+000	-9.547e-07	0.000000000000000E+000	0.0322145	0.0322145	0.0000000E+000	0.0000000E+000	0.01415	0.000000000000000E+000	4.66217e-05	3.61018	232697
1	1	0	1	0	0	0	14	8270.68	0.01415	3.3339	0.0141543	0.000112217	0.0325173	5.47031e-05	0.0325173	0	-0.316495	5.47031e-05	0.000000000000000E+000	0.000000000000000E+000	0.000000000000000E+000	-9.63673e-07	0.000000000000000E+000	0.0325173	0.0325173	0.0000000E+000	0.0000000E+000	0.01415	0.000000000000000E+000	4.7189e-05	3.6504	235541
1	1	0	1	0	0	0	14	8736.52	0.01415	3.37394	0.014154	0.00086891	0.0343488	6.08577e-05	0.0343488	0	-0.316591	6.08577e-05	0.000000000000000E+000	0.000000000000000E+000	0.000000000000000E+000	-1.01795e-06	0.000000000000000E+000	0.0343488	0.0343488	0.0000000E+000	0.0000000E+000	0.01415	0.000000000000000E+000	4.77548e-05	3.69053	238373
1	1	0	1	0	0	0	14	12425.1	0.01415	3.40924	0.0141529	0.00471782	0.0488504	0.000110112	0.0488504	0	-0.316094	0.000110112	0.000000000000000E+000	0.000000000000000E+000	0.000000000000000E+000	-1.44771e-06	0.000000000000000E+000	0.0488504	0.0488504	0.0000000E+000	0.0000000E+000	0.01415	0.000000000000000E+000	4.82505e-05	3.72533	240887
1	1	0	1	0	0	0	14	17225.1	0.01415	3.435	0.0141537	0.00471778	0.0677215	0.00017469	0.0677215	0	-0.315465	0.00017469	0.000000000000000E+000	0.000000000000000E+000	0.000000000000000E+000	-2.00697e-06	0.000000000000000E+000	0.0677215	0.0677215	0.0000000E+000	0.0000000E+000	0.01415	0.000000000000000E+000	4.86179e-05	3.75046	242693
1	1	0	1	0	0	0	14	22025.1	0.01415	3.4637	0.0141539	0.00471776	0.0865925	0.000239782	0.0865925	0	-0.315045	0.000239782	0.000000000000000E+000	0.000000000000000E+000	0.000000000000000E+000	-2.56623e-06	0.000000000000000E+000	0.0865925	0.0865925	0.0000000E+000	0.0000000E+000	0.01415	0.000000000000000E+000	4.90248e-05	3.77874	244717
1	1	0	1	0	0	0	14	26825.1	0.01415	3.49245	0.0141529	0.00471776	0.105464	0.000305418	0.105464	0	-0.314778	0.000305418	0.000000000000000E+000	0.000000000000000E+000	0.000000000000000E+000	-3.12549e-06	0.000000000000000E+000	0.105464	0.105464	0.0000000E+000	0.0000000E+000	0.01415	0.000000000000000E+000	4.94284e-05	3.80723	246765
1	1	0	1	0	0	0	14	31625.1	0.01415	3.52478	0.0141534	0.00471771	0.124335	0.000371618	0.124335	0	-0.314549	0.000371618	0.000000000000000E+000	0.000000000000000E+000	0.000000000000000E+000	-3.68474e-06	0.000000000000000E+000	0.124335	0.124335	0.0000000E+000	0.0000000E+000	0.01415	0.000000000000000E+000	4.98875e-05	3.83933	249041
1	1	0	1	0	0	0	14	36023	0.01415	3.56422	0.0141533	0.00394716	0.141625	0.000432883	0.141625	0	-0.314511	0.000432883	0.000000000000000E+000	0.000000000000000E+000	0.000000000000000E+000	-4.19715e-06	0.000000000000000E+000	0.141625	0.141625	0.0000000E+000	0.0000000E+000	0.01415	0.000000000000000E+000	5.04455e-05	3.87873	251829
1	1	0	1	0	0	0	14	39438.5	0.01415	3.60446	0.0141522	0.00306703	0.155053	0.000480999	0.155053	0	-0.314415	0.000480999	0.000000000000000E+000	0.000000000000000E+000	0.000000000000000E+000	-4.59509e-06	0.000000000000000E+000	0.155053	0.155053	0.0000000E+000	0.0000000E+000	0.01415	0.000000000000000E+000	5.10112e-05	3.91888	254692
1	1	0	1	0	0	0	14	42237.1	0.01415	3.64468	0.0141533	0.00260059	0.166055	0.00052087	0.166055	0	-0.314339	0.00052087	0.000000000000000E+000	0.000000000000000E+000	0.000000000000000E+000	-4.92115e-06	0.000000000000000E+000	0.166055	0.166055	0.0000000E+000	0.0000000E+000	0.01415	0.000000000000000E+000	5.15844e-05	3.95902	257515
1	1	0	1	0	0	0	14	44719	0.01415	3.68493	0.014153	0.00235989	0.175812	0.000556623	0.175812	0	-0.314244	0.000556623	0.000000000000000E+000	0.000000000000000E+000	0.000000000000000E+000	-5.21031e-06	0.000000000000000E+000	0.175812	0.175812	0.0000000E+000	0.0000000E+000	0.01415	0.000000000000000E+000	5.21528e-05	3.99917	260364
1	1	0	1	0	0	0	14	47047.7	0.01415	3.72523	0.0141531	0.0022371	0.184967	0.00059054	0.184967	0	-0.314129	0.00059054	0.000000000000000E+000	0.000000000000000E+000	0.000000000000000E+000	-5.48164e-06	0.000000000000000E+000	0.184967	0.184967	0.0000000E+000	0.0000000E+000	0.01415	0.000000000000000E+000	5.27236e-05	4.03936	263209
1	1	0	1	0	0	0	14	49280.2	0.01415	3.76537	0.0141534	0.00216296	0.193744	0.000623408	0.193744	0	-0.314148	0.000623408	0.000000000000000E+000	0.000000000000000E+000	0.000000000000000E+000	-5.74174e-06	0.000000000000000E+000	0.193744	0.193744	0.0000000E+000	0.0000000E+000	0.01415	0.000000000000000E+000	5.3293e-05	4.07952	266040
1	1	0	1	0	0	0	14	51414.3	0.01415	3.80552	0.0141531	0.00206197	0.202134	0.000655164	0.202134	0	-0.314072	0.000655164	0.000000000000000E+000	0.000000000000000E+000	0.000000000000000E+000	-5.99038e-06	0.000000000000000E+000	0.202134	0.202134	0.0000000E+000	0.0000000E+000	0.01415	0.000000000000000E+000	5.386e-05	4.11959	268882
1	1	0	1	0	0	0	14	53470	0.01415	3.84548	0.0141536	0.00199728	0.210215	0.000686077	0.210215	0	-0.314186	0.000686077	0.000000000000000E+000	0.000000000000000E+000	0.000000000000000E+000	-6.22988e-06	0.000000000000000E+000	0.210215	0.210215	0.0000000E+000	0.0000000E+000	0.01415	0.000000000000000E+000	5.44275e-05	4.15967	271696
1	1	0	1	0	0	0	14	55507.4	0.01415	3.88614	0.0141527	0.00200888	0.218225	0.000717039	0.218225	0	-0.313729	0.000717039	0.000000000000000E+000	0.000000000000000E+000	0.000000000000000E+000	-6.46726e-06	0.000000000000000E+000	0.218225	0.218225	0.0000000E+000	0.0000000E+000	0.01415	0.000000000000000E+000	5.49993e-05	4.19987	274587
1	0	0	0	0	0	1	14	55620.8	-0.01415	3.87826	-0.0141501	-0.000357731	0.217955	0.000718768	-0.000357731	1	-0.310676	0.00071738	1.38828e-06	0.000000000000000E+000	0.000000000000000E+000	-6.45926e-06	0.000357731	0.000000000000000E+000	0.000357731	0.0000000E+000	0.0000000E+000	-0.01415	0.000000000000000E+000	-5.48777e-05	4.18893	274080
1	0	0	0	0	0	1	14	56790.6	-0.01415	3.84803	-0.0141501	-0.00125666	0.213357	0.00073652	-0.00495588	1	-0.300716	0.00071738	1.91398e-05	0.000000000000000E+000	0.000000000000000E+000	-6.32299e-06	0.00495588	0.000000000000000E+000	0.00495588	0.0000000E+000	0.0000000E+000	-0.01415	0.000000000000000E+000	-5.44502e-05	4.14875	271943
1	0	0	0	0	0	1	14	58177.1	-0.01415	3.81712	-0.0141503	-0.00141842	0.207907	0.000757424	-0.0104055	1	-0.291539	0.00071738	4.00442e-05	0.000000000000000E+000	0.000000000000000E+000	-6.16148e-06	0.0104055	0.000000000000000E+000	0.0104055	0.0000000E+000	0.0000000E+000	-0.01415	0.000000000000000E+000	-5.40133e-05	4.10866	269756
1	0	0	0	0	0	1	14	59741.1	-0.01415	3.78308	-0.0141498	-0.00160882	0.20176	0.000780783	-0.0165529	1	-0.285376	0.00071738	6.34029e-05	0.000000000000000E+000	0.000000000000000E+000	-5.9793e-06	0.0165529	0.000000000000000E+000	0.0165529	0.0000000E+000	0.0000000E+000	-0.01415	0.000000000000000E+000	-5.35299e-05	4.06845	267359
1	0	0	0	0	0	1	14	61455.1	-0.01415	3.74795	-0.0141501	-0.00174666	0.195023	0.000806168	-0.0232898	1	-0.280377	0.00071738	8.87881e-05	0.000000000000000E+000	0.000000000000000E+000	-5.77965e-06	0.0232898	0.000000000000000E+000	0.0232898	0.0000000E+000	0.0000000E+000	-0.01415	0.000000000000000E+000	-5.3034e-05	4.02833	264870
1	0	0	0	0	0	1	14	63301.9	-0.01415	3.70265	-0.0141499	-0.00186884	0.187764	0.000833207	-0.0305487	1	-0.285548	0.00071738	0.000115827	0.000000000000000E+000	0.000000000000000E+000	-5.56453e-06	0.0305487	0.000000000000000E+000	0.0305487	0.0000000E+000	0.0000000E+000	-0.01415	0.000000000000000E+000	-5.23921e-05	3.9882	261673
1	0	0	0	0	0	1	14	65322.9	-0.01415	3.66012	-0.0141505	-0.00203878	0.179821	0.000862451	-0.0384925	1	-0.287856	0.00071738	0.000145071	0.000000000000000E+000	0.000000000000000E+000	-5.32911e-06	0.0384925	0.000000000000000E+000	0.0384925	0.0000000E+000	0.0000000E+000	-0.01415	0.000000000000000E+000	-5.17926e-05	3.94797	258656
1	0	0	0	0	0	1	14	67606.3	-0.01415	3.61781	-0.0141503	-0.00238307	0.170845	0.000895109	-0.0474678	1	-0.289955	0.00071738	0.000177729	0.000000000000000E+000	0.000000000000000E+000	-5.06312e-06	0.0474678	0.000000000000000E+000	0.0474678	0.0000000E+000	0.0000000E+000	-0.01415	0.000000000000000E+000	-5.11931e-05	3.90777	255671
1	0	0	0	0	0	1	14	70382.2	-0.01415	3.57555	-0.01415	-0.00297535	0.159934	0.000934346	-0.0583787	1	-0.292149	0.00071738	0.000216966	0.000000000000000E+000	0.000000000000000E+000	-4.73977e-06	0.0583787	0.000000000000000E+000	0.0583787	0.0000000E+000	0.0000000E+000	-0.01415	0.000000000000000E+000	-5.05941e-05	3.8677	252689
1	0	0	0	0	0	1	14	73981.7	-0.01415	3.53345	-0.0141503	-0.00389853	0.145786	0.000984624	-0.0725267	1	-0.294134	0.00071738	0.000267244	0.000000000000000E+000	0.000000000000000E+000	-4.32048e-06	0.0725267	0.000000000000000E+000	0.0725267	0.0000000E+000	0.0000000E+000	-0.01415	0.000000000000000E+000	-4.99996e-05	3.82759	249708
1	0	0	0	0	0	1	14	78615.8	-0.01415	3.49241	-0.0141497	-0.00471661	0.127572	0.0010486	-0.0907411	1	-0.296576	0.00071738	0.000331217	0.000000000000000E+000	0.000000000000000E+000	-3.78068e-06	0.0907411	0.000000000000000E+000	0.0907411	0.0000000E+000	0.0000000E+000	-0.01415	0.000000000000000E+000	-4.94166e-05	3.78899	246819
1	0	0	0	0	0	1	14	83415.8	-0.01415	3.45583	-0.0141498	-0.00471663	0.108705	0.00111414	-0.109608	1	-0.299285	0.00071738	0.000396759	0.000000000000000E+000	0.000000000000000E+000	-3.22156e-06	0.109608	0.000000000000000E+000	0.109608	0.0000000E+000	0.0000000E+000	-0.01415	0.000000000000000E+000	-4.88994e-05	3.75512	244231
1	0	0	0	0	0	1	14	88075.9	-0.01415	3.41654	-0.0141498	-0.00427498	0.0903888	0.0011771	-0.127924	1	-0.300506	0.00071738	0.000459718	0.000000000000000E+000	0.000000000000000E+000	-2.67873e-06	0.127924	0.000000000000000E+000	0.127924	0.0000000E+000	0.0000000E+000	-0.01415	0.000000000000000E+000	-4.83433e-05	3.71705	241456
1	0	0	0	0	0	1	14	91052.2	-0.01415	3.37544	-0.0141501	-0.00212824	0.0786905	0.00121686	-0.139623	1	-0.301517	0.00071738	0.000499477	0.000000000000000E+000	0.000000000000000E+000	-2.33205e-06	0.139623	0.000000000000000E+000	0.139623	0.0000000E+000	0.0000000E+000	-0.01415	0.000000000000000E+000	-4.7763e-05	3.67696	238545
1	0	0	0	0	0	1	14	92253.5	-0.01415	3.33495	-0.0141498	-0.000763199	0.0739688	0.00123272	-0.144344	1	-0.30188	0.00071738	0.000515337	0.000000000000000E+000	0.000000000000000E+000	-2.19212e-06	0.144344	0.000000000000000E+000	0.144344	0.0000000E+000	0.0000000E+000	-0.01415	0.000000000000000E+000	-4.7189e-05	3.63683	235688
1	0	0	0	0	0	1	14	92700	-0.01415	3.29444	-0.0141496	-0.000309416	0.0722139	0.00123854	-0.146099	1	-0.30209	0.00071738	0.000521159	0.000000000000000E+000	0.000000000000000E+000	-2.14011e-06	0.146099	0.000000000000000E+000	0.146099	0.0000000E+000	0.0000000E+000	-0.01415	0.000000000000000E+000	-4.66149e-05	3.59653	232830
1	0	0	0	0	0	1	14	92926	-0.01415	3.25414	-0.0141502	-0.000187148	0.0713252	0.00124145	-0.146988	1	-0.302243	0.00071738	0.00052407	0.000000000000000E+000	0.000000000000000E+000	-2.11377e-06	0.146988	0.000000000000000E+000	0.146988	0.0000000E+000	0.0000000E+000	-0.01415	0.000000000000000E+000	-4.60468e-05	3.55638	229971
1	0	0	0	0	0	1	14	93094.7	-0.01415	3.21394	-0.014149	-0.000157382	0.0706624	0.00124359	-0.147651	1	-0.3023	0.00071738	0.000526214	0.000000000000000E+000	0.000000000000000E+000	-2.09413e-06	0.147651	0.000000000000000E+000	0.147651	0.0000000E+000	0.0000000E+000	-0.01415	0.000000000000000E+000	-4.5474e-05	3.51624	227149
1	0	0	0	0	0	1	14	93247.2	-0.01415	3.17364	-0.0141501	-0.000147002	0.0700628	0.00124551	-0.14825	1	-0.302395	0.00071738	0.00052813	0.000000000000000E+000	0.000000000000000E+000	-2.07636e-06	0.14825	0.000000000000000E+000	0.14825	0.0000000E+000	0.0000000E+000	-0.01415	0.000000000000000E+000	-4.49072e-05	3.47603	224284
1	0	0	0	0	0	1	14	93394.3	-0.01415	3.13351	-0.01415	-0.000141641	0.0694847	0.00124733	-0.148828	1	-0.302414	0.00071738	0.000529953	0.000000000000000E+000	0.000000000000000E+000	-2.05923e-06	0.148828	0.000000000000000E+000	0.148828	0.0000000E+000	0.0000000E+000	-0.01415	0.000000000000000E+000	-4.4339e-05	3.43592	221450
1	0	0	0	0	0	1	14	93535.6	-0.01415	3.09321	-0.0141494	-0.000135537	0.0689295	0.00124906	-0.149384	1	-0.302567	0.00071738	0.000531682	0.000000000000000E+000	0.000000000000000E+000	-2.04277e-06	0.149384	0.000000000000000E+000	0.149384	0.0000000E+000	0.0000000E+000	-0.01415	0.000000000000000E+000	-4.3767e-05	3.39577	218611
1	0	0	0	0	0	1	14	93669.4	-0.01415	3.05296	-0.0141496	-0.000128128	0.0684035	0.00125068	-0.14991	1	-0.302662	0.00071738	0.000533298	0.000000000000000E+000	0.000000000000000E+000	-2.02719e-06	0.14991	0.000000000000000E+000	0.14991	0.0000000E+000	0.0000000E+000	-0.01415	0.000000000000000E+000	-4.31983e-05	3.35563	215763
1	0	0	0	0	0	1	14	93795	-0.01415	3.01289	-0.0141503	-0.000120543	0.0679098	0.00125218	-0.150403	1	-0.302624	0.00071738	0.000534796	0.000000000000000E+000	0.000000000000000E+000	-2.01256e-06	0.150403	0.000000000000000E+000	0.150403	0.0000000E+000	0.0000000E+000	-0.01415	0.000000000000000E+000	-4.26333e-05	3.31552	212921
1	0	0	0	0	0	1	14	93913	-0.01415	2.97267	-0.01415	-0.000112366	0.0674459	0.00125356	-0.150867	1	-0.3027	0.00071738	0.000536184	0.000000000000000E+000	0.000000000000000E+000	-1.99881e-06	0.150867	0.000000000000000E+000	0.150867	0.0000000E+000	0.0000000E+000	-0.01415	0.000000000000000E+000	-4.20633e-05	3.27537	210082
1	0	0	0	0	0	1	14	94024.8	-0.01415	2.93235	-0.0141499	-0.000108049	0.0670065	0.00125486	-0.151307	1	-0.302777	0.00071738	0.000537482	0.000000000000000E+000	0.000000000000000E+000	-1.98578e-06	0.151307	0.000000000000000E+000	0.151307	0.0000000E+000	0.0000000E+000	-0.01415	0.000000000000000E+000	-4.14924e-05	3.23513	207235
1	0	0	0	0	0	1	14	94129.9	-0.01415	2.89211	-0.0141499	-0.000101237	0.0665934	0.00125606	-0.15172	1	-0.302891	0.00071738	0.000538685	0.000000000000000E+000	0.000000000000000E+000	-1.97354e-06	0.15172	0.000000000000000E+000	0.15172	0.0000000E+000	0.0000000E+000	-0.01415	0.000000000000000E+000	-4.0923e-05	3.195	204391
1	0	0	0	0	0	1	14	94229.2	-0.01415	2.85185	-0.0141498	-9.48806e-05	0.0662032	0.00125719	-0.15211	1	-0.302891	0.00071738	0.000539806	0.000000000000000E+000	0.000000000000000E+000	-1.96198e-06	0.15211	0.000000000000000E+000	0.15211	0.0000000E+000	0.0000000E+000	-0.01415	0.000000000000000E+000	-4.0353e-05	3.15474	201547
1	0	0	0	0	0	1	14	94322.7	-0.01415	2.81168	-0.0141496	-9.02191e-05	0.0658356	0.00125823	-0.152477	1	-0.30291	0.00071738	0.000540847	0.000000000000000E+000	0.000000000000000E+000	-1.95109e-06	0.152477	0.000000000000000E+000	0.152477	0.0000000E+000	0.0000000E+000	-0.01415	0.000000000000000E+000	-3.97842e-05	3.11459	198710
1	0	0	0	0	0	1	14	94411.8	-0.01415	2.77151	-0.0141493	-8.63799e-05	0.0654854	0.0012592	-0.152828	1	-0.30291	0.00071738	0.000541825	0.000000000000000E+000	0.000000000000000E+000	-1.94071e-06	0.152828	0.000000000000000E+000	0.152828	0.0000000E+000	0.0000000E+000	-0.01415	0.000000000000000E+000	-3.92148e-05	3.07442	195877
1	0	0	0	0	0	1	14	94496.7	-0.01415	2.73125	-0.01415	-8.20446e-05	0.0651519	0.00126012	-0.153161	1	-0.303044	0.00071738	0.000542742	0.000000000000000E+000	0.000000000000000E+000	-1.93082e-06	0.153161	0.000000000000000E+000	0.153161	0.0000000E+000	0.0000000E+000	-0.01415	0.000000000000000E+000	-3.86471e-05	3.03429	193022
1	0	0	0	0	0	1	14	94566.5	-0.01415	2.69681	-0.0141496	-3.4259e-05	0.0648772	0.00126087	-0.153436	1	-0.303158	0.00071738	0.000543488	0.000000000000000E+000	0.000000000000000E+000	-1.92268e-06	0.153436	0.000000000000000E+000	0.153436	0.0000000E+000	0.0000000E+000	-0.01415	0.000000000000000E+000	-3.81589e-05	2.99997	190592
1	1	0	1	0	0	2	14	94567	0.01415	2.71534	0.0141533	9.64765e-07	0.0648788	0.00126087	1.61345e-06	2	-0.305028	4.3671e-09	0.000000000000000E+000	0.000000000000000E+000	0.000000000000000E+000	-1.92273e-06	0.000000000000000E+000	1.61345e-06	1.61345e-06	0.0000000E+000	0.0000000E+000	0.01415	1	3.84311e-05	3.02037	191852
1	1	0	1	0	0	2	14	94568.2	0.01415	2.75534	0.0141534	1.37992e-06	0.0648839	0.00126089	6.64563e-06	2	-0.305124	1.81362e-08	0.000000000000000E+000	0.000000000000000E+000	0.000000000000000E+000	-1.92288e-06	0.000000000000000E+000	6.64563e-06	6.64563e-06	0.0000000E+000	0.0000000E+000	0.01415	1	3.89975e-05	3.06046	194676
1	1	0	1	0	0	2	14	94569.9	0.01415	2.79571	0.0141529	1.77463e-06	0.0648904	0.0012609	1.31678e-05	2	-0.304971	3.62427e-08	0.000000000000000E+000	0.000000000000000E+000	0.000000000000000E+000	-1.92307e-06	0.000000000000000E+000	1.31678e-05	1.31678e-05	0.0000000E+000	0.0000000E+000	0.01415	1	3.95675e-05	3.10068	197536
1	1	0	1	0	0	2	14	94571.9	0.01415	2.8358	0.0141529	2.1371e-06	0.0648984	0.00126093	2.118e-05	2	-0.305066	5.88071e-08	0.000000000000000E+000	0.000000000000000E+000	0.000000000000000E+000	-1.92331e-06	0.000000000000000E+000	2.118e-05	2.118e-05	0.0000000E+000	0.0000000E+000	0.01415	1	4.01349e-05	3.14087	200369
1	1	0	1	0	0	2	14	94574.4	0.01415	2.87604	0.0141524	2.62852e-06	0.0649082	0.00126095	3.09762e-05	2	-0.305009	8.67891e-08	0.000000000000000E+000	0.000000000000000E+000	0.000000000000000E+000	-1.9236e-06	0.000000000000000E+000	3.09762e-05	3.09762e-05	0.0000000E+000	0.0000000E+000	0.01415	1	4.0703e-05	3.18105	203219
1	1	0	1	0	0	2	14	94577.4	0.01415	2.91631	0.0141529	3.1278e-06	0.0649199	0.00126099	4.26885e-05	2	-0.304952	1.20716e-07	0.000000000000000E+000	0.000000000000000E+000	0.000000000000000E+000	-1.92395e-06	0.000000000000000E+000	4.26885e-05	4.26885e-05	0.0000000E+000	0.0000000E+000	0.01415	1	4.12741e-05	3.22126	206058
1	1	0	1	0	0	2	14	94580.9	0.01415	2.95655	0.0141526	3.60822e-06	0.0649336	0.00126103	5.63917e-05	2	-0.304933	1.6096e-07	0.000000000000000E+000	0.000000000000000E+000	0.000000000000000E+000	-1.92435e-06	0.000000000000000E+000	5.63917e-05	5.63917e-05	0.0000000E+000	0.0000000E+000	0.01415	1	4.18429e-05	3.26148	208905
1	1	0	1	0	0	2	14	94584.9	0.01415	2.99677	0.0141527	4.07683e-06	0.0649493	0.00126108	7.21141e-05	2	-0.304837	2.07764e-07	0.000000000000000E+000	0.000000000000000E+000	0.000000000000000E+000	-1.92482e-06	0.000000000000000E+000	7.21141e-05	7.21141e-05	0.0000000E+000	0.0000000E+000	0.01415	1	4.24126e-05	3.30161	211745
1	1	0	1	0	0	2	14	94589.4	0.01415	3.03688	0.014153	4.60912e-06	0.0649671	0.00126113	8.98995e-05	2	-0.304952	2.61423e-07	0.000000000000000E+000	0.000000000000000E+000	0.000000000000000E+000	-1.92535e-06	0.000000000000000E+000	8.98995e-05	8.98995e-05	0.0000000E+000	0.0000000E+000	0.01415	1	4.2981e-05	3.34183	214575
1	1	0	1	0	0	2	14	94594.5	0.01415	3.07709	0.014153	5.14143e-06	0.064987	0.00126119	0.000109784	2	-0.304933	3.22212e-07	0.000000000000000E+000	0.000000000000000E+000	0.000000000000000E+000	-1.92594e-06	0.000000000000000E+000	0.000109784	0.000109784	0.0000000E+000	0.0000000E+000	0.01415	1	4.355e-05	3.38202	217416
1	1	0	1	0	0	2	14	94600	0.01415	3.11716	0.0141534	5.60533e-06	0.0650088	0.00126126	0.000131635	2	-0.305028	3.89892e-07	0.000000000000000E+000	0.000000000000000E+000	0.000000000000000E+000	-1.92658e-06	0.000000000000000E+000	0.000131635	0.000131635	0.0000000E+000	0.0000000E+000	0.01415	1	4.41185e-05	3.42219	220240
1	1	0	1	0	0	2	14	94606.2	0.01415	3.15738	0.0141531	6.29097e-06	0.0650331	0.00126133	0.000155878	2	-0.304914	4.65955e-07	0.000000000000000E+000	0.000000000000000E+000	0.000000000000000E+000	-1.9273e-06	0.000000000000000E+000	0.000155878	0.000155878	0.0000000E+000	0.0000000E+000	0.01415	1	4.46868e-05	3.4623	223087
1	1	0	1	0	0	2	14	94613.1	0.01415	3.19751	0.0141528	7.11654e-06	0.0650602	0.00126142	0.000182953	2	-0.304952	5.51993e-07	0.000000000000000E+000	0.000000000000000E+000	0.000000000000000E+000	-1.9281e-06	0.000000000000000E+000	0.000182953	0.000182953	0.0000000E+000	0.0000000E+000	0.01415	1	4.52537e-05	3.50246	225928
1	1	0	1	0	0	2	14	94621.1	0.01415	3.23752	0.0141527	8.58686e-06	0.0650917	0.00126152	0.000214447	2	-0.305028	6.53342e-07	0.000000000000000E+000	0.000000000000000E+000	0.000000000000000E+000	-1.92904e-06	0.000000000000000E+000	0.000214447	0.000214447	0.0000000E+000	0.0000000E+000	0.01415	1	4.58196e-05	3.54255	228757
1	1	0	1	0	0	2	14	94631.3	0.01415	3.27761	0.0141526	1.14953e-05	0.0651319	0.00126165	0.000254718	2	-0.305162	7.84566e-07	0.000000000000000E+000	0.000000000000000E+000	0.000000000000000E+000	-1.93023e-06	0.000000000000000E+000	0.000254718	0.000254718	0.0000000E+000	0.0000000E+000	0.01415	1	4.63868e-05	3.58278	231591
1	1	0	1	0	0	2	14	94648.8	0.01415	3.31751	0.0141532	2.26273e-05	0.0652005	0.00126188	0.000323286	2	-0.305333	1.01084e-06	0.000000000000000E+000	0.000000000000000E+000	0.000000000000000E+000	-1.93226e-06	0.000000000000000E+000	0.000323286	0.000323286	0.0000000E+000	0.0000000E+000	0.01415	1	4.69536e-05	3.62285	234399
1	1	0	1	0	0	2	14	94716.2	0.01415	3.35749	0.0141527	0.000118023	0.0654655	0.00126276	0.000588307	2	-0.305543	1.89686e-06	0.000000000000000E+000	0.000000000000000E+000	0.000000000000000E+000	-1.94012e-06	0.000000000000000E+000	0.000588307	0.000588307	0.0000000E+000	0.0000000E+000	0.01415	1	4.75175e-05	3.66303	237234
1	1	0	1	0	0	2	14	95490.1	0.01415	3.39706	0.0141529	0.00166638	0.0685081	0.00127307	0.00363093	2	-0.306135	1.21977e-05	0.000000000000000E+000	0.000000000000000E+000	0.000000000000000E+000	-2.03029e-06	0.000000000000000E+000	0.00363093	0.00363093	0.0000000E+000	0.0000000E+000	0.01415	1	4.80784e-05	3.7032	240025
1	1	0	1	0	0	2	14	99904.7	0.01415	3.43187	0.0141525	0.00471763	0.0858634	0.00133236	0.0209862	2	-0.308119	7.14931e-05	0.000000000000000E+000	0.000000000000000E+000	0.000000000000000E+000	-2.54462e-06	0.000000000000000E+000	0.0209862	0.0209862	0.0000000E+000	0.0000000E+000	0.01415	1	4.85695e-05	3.73999	242492
1	1	0	1	0	0	2	14	104705	0.01415	3.46309	0.0141531	0.00471765	0.104734	0.00139742	0.0398567	2	-0.309779	0.000136549	0.000000000000000E+000	0.000000000000000E+000	0.000000000000000E+000	-3.10386e-06	0.000000000000000E+000	0.0398567	0.0398567	0.0000000E+000	0.0000000E+000	0.01415	1	4.90133e-05	3.77287	244688
1	1	0	1	0	0	2	14	109505	0.01415	3.49488	0.0141531	0.00471763	0.123605	0.00146306	0.0587274	2	-0.311096	0.000202195	0.000000000000000E+000	0.000000000000000E+000	0.000000000000000E+000	-3.66311e-06	0.000000000000000E+000	0.0587274	0.0587274	0.0000000E+000	0.0000000E+000	0.01415	1	4.94634e-05	3.80597	246933
1	1	0	1	0	0	2	14	114180	0.01415	3.53281	0.0141524	0.00432262	0.141985	0.00152763	0.0771075	2	-0.311935	0.000266761	0.000000000000000E+000	0.000000000000000E+000	0.000000000000000E+000	-4.20782e-06	0.000000000000000E+000	0.0771075	0.0771075	0.0000000E+000	0.0000000E+000	0.01415	1	4.99976e-05	3.84475	249627
1	1	0	1	0	0	2	14	117864	0.01415	3.5725	0.0141524	0.00324994	0.156467	0.00157906	0.0915896	2	-0.312317	0.000318193	0.000000000000000E+000	0.000000000000000E+000	0.000000000000000E+000	-4.637e-06	0.000000000000000E+000	0.0915896	0.0915896	0.0000000E+000	0.0000000E+000	0.01415	1	5.05595e-05	3.88482	252430
1	1	0	1	0	0	2	14	120758	0.01415	3.6124	0.0141536	0.00262871	0.167847	0.00161993	0.102969	2	-0.312546	0.000359063	0.000000000000000E+000	0.000000000000000E+000	0.000000000000000E+000	-4.97425e-06	0.000000000000000E+000	0.102969	0.102969	0.0000000E+000	0.0000000E+000	0.01415	1	5.11286e-05	3.92494	255228
1	1	0	1	0	0	2	14	123190	0.01415	3.65216	0.014153	0.00224823	0.177407	0.00165465	0.11253	2	-0.312889	0.000393784	0.000000000000000E+000	0.000000000000000E+000	0.000000000000000E+000	-5.2576e-06	0.000000000000000E+000	0.11253	0.11253	0.0000000E+000	0.0000000E+000	0.01415	1	5.16891e-05	3.96505	258049
1	1	0	1	0	0	2	14	125389	0.01415	3.69218	0.0141528	0.00211814	0.186053	0.00168639	0.121175	2	-0.313004	0.000425527	0.000000000000000E+000	0.000000000000000E+000	0.000000000000000E+000	-5.5138e-06	0.000000000000000E+000	0.121175	0.121175	0.0000000E+000	0.0000000E+000	0.01415	1	5.22547e-05	4.00518	260880
1	1	0	1	0	0	2	14	127466	0.01415	3.73206	0.0141527	0.00201314	0.194217	0.0017167	0.12934	2	-0.313271	0.000455832	0.000000000000000E+000	0.000000000000000E+000	0.000000000000000E+000	-5.75576e-06	0.000000000000000E+000	0.12934	0.12934	0.0000000E+000	0.0000000E+000	0.01415	1	5.28186e-05	4.04533	263700
1	1	0	1	0	0	2	14	129461	0.01415	3.77219	0.0141524	0.0019252	0.202059	0.00174612	0.137182	2	-0.313252	0.000485253	0.000000000000000E+000	0.000000000000000E+000	0.000000000000000E+000	-5.98816e-06	0.000000000000000E+000	0.137182	0.137182	0.0000000E+000	0.0000000E+000	0.01415	1	5.33853e-05	4.08544	266541
1	1	0	1	0	0	2	14	131370	0.01415	3.81209	0.0141527	0.00184907	0.209562	0.00177457	0.144685	2	-0.313442	0.000513704	0.000000000000000E+000	0.000000000000000E+000	0.000000000000000E+000	-6.21053e-06	0.000000000000000E+000	0.144685	0.144685	0.0000000E+000	0.0000000E+000	0.01415	1	5.39512e-05	4.12553	269354
1	1	0	1	0	0	2	14	133221	0.01415	3.85202	0.0141531	0.00181233	0.21684	0.00180246	0.151963	2	-0.313576	0.000541592	0.000000000000000E+000	0.000000000000000E+000	0.000000000000000E+000	-6.42621e-06	0.000000000000000E+000	0.151963	0.151963	0.0000000E+000	0.0000000E+000	0.01415	1	5.45179e-05	4.1656	272169
1	1	0	1	0	0	2	14	134831	0.01415	3.88639	0.0141524	0.000849077	0.22317	0.00182695	0.158292	2	-0.313633	0.000566082	0.000000000000000E+000	0.000000000000000E+000	0.000000000000000E+000	-6.61379e-06	0.000000000000000E+000	0.158292	0.158292	0.0000000E+000	0.0000000E+000	0.01415	1	5.50018e-05	4.20002	274610
2	1	0	0	0	0	3	14	134891	3.88638	3.88664	0.00940614	8.66886e-05	0.223375	0.00182775	0.158498	2	-0.313118	0.000566882	0.000000000000000E+000	0.000000000000000E+000	0.000000000000000E+000	-6.61989e-06	0.000000000000000E+000	0.158498	0.158498	0.0000000E+000	3.88638	0.0000000E+000	1	3.65582e-05	4.19976	413202
2	1	0	0	0	0	3	14	135011	3.88638	3.88666	0.00553577	4.78757e-05	0.223607	0.00182865	0.15873	2	-0.312794	0.000567781	0.000000000000000E+000	0.000000000000000E+000	0.000000000000000E+000	-6.62674e-06	0.000000000000000E+000	0.15873	0.15873	0.0000000E+000	3.88638	0.0000000E+000	1	2.15157e-05	4.19945	702098
2	1	0	0	0	0	3	14	135131	3.88638	3.88677	0.00435558	3.6999e-05	0.223769	0.00182928	0.158892	2	-0.312775	0.000568411	0.000000000000000E+000	0.000000000000000E+000	0.000000000000000E+000	-6.63155e-06	0.000000000000000E+000	0.158892	0.158892	0.0000000E+000	3.88638	0.0000000E+000	1	1.69291e-05	4.19955	892366
2	1	0	0	0	0	3	14	135251	3.88638	3.88673	0.00366764	3.12402e-05	0.223902	0.0018298	0.159025	2	-0.312622	0.000568929	0.000000000000000E+000	0.000000000000000E+000	0.000000000000000E+000	-6.6355e-06	0.000000000000000E+000	0.159025	0.159025	0.0000000E+000	3.88638	0.0000000E+000	1	1.42552e-05	4.19936	1.05974e+06
2	1	0	0	0	0	3	14	135371	3.88638	3.88671	0.00314765	2.80222e-05	0.224019	0.00183025	0.159142	2	-0.312622	0.000569385	0.000000000000000E+000	0.000000000000000E+000	0.000000000000000E+000	-6.63897e-06	0.000000000000000E+000	0.159142	0.159142	0.0000000E+000	3.88638	0.0000000E+000	1	1.2234e-05	4.19934	1.2348e+06
2	1	0	0	0	0	3	14	135491	3.88638	3.88694	0.00312411	2.61595e-05	0.224126	0.00183067	0.159249	2	-0.312622	0.000569801	0.000000000000000E+000	0.000000000000000E+000	0.000000000000000E+000	-6.64215e-06	0.000000000000000E+000	0.159249	0.159249	0.0000000E+000	3.88638	0.0000000E+000	1	1.21432e-05	4.19956	1.24417e+06
2	1	0	0	0	0	3	14	135611	3.88638	3.88671	0.00266774	2.41945e-05	0.224225	0.00183105	0.159348	2	-0.312565	0.000570184	0.000000000000000E+000	0.000000000000000E+000	0.000000000000000E+000	-6.64506e-06	0.000000000000000E+000	0.159348	0.159348	0.0000000E+000	3.88638	0.0000000E+000	1	1.03687e-05	4.19928	1.45693e+06
2	1	0	0	0	0	3	14	135731	3.88638	3.88675	0.00273676	2.25341e-05	0.224317	0.00183141	0.15944	2	-0.312546	0.000570542	0.000000000000000E+000	0.000000000000000E+000	0.000000000000000E+000	-6.6478e-06	0.000000000000000E+000	0.15944	0.15944	0.0000000E+000	3.88638	0.0000000E+000	1	1.06371e-05	4.1993	1.4202e+06