File: Analyzed Data/266/266_230530_C08.mpt
EC-Lab ASCII FILE
Nb header lines : 95

Modulo Bat

Run on channel : 8 (SN 55105)
User :
CE vs. WE compliance from -10 V to 10 V
Electrode connection : standard
Potential control : Ewe
Ewe ctrl range : min = -10.00 V, max = 10.00 V
Safety Limits :
	Do not start on E overload
Acquisition started on : 05/30/2023 14:12:58.301
Technique started on : 05/30/2023 14:12:58.301
Loaded Setting File :  C:\Users\OEMS\Documents\EC-Lab\Data\Mitch\Protocols\AMIDR Form.mps
Saved on :
	File : 266_230530_C08.mpr
	Directory : C:\Users\OEMS\Documents\EC-Lab\Data\Mitch\Results\Formation\
	Host : 192.168.1.58
Device : VMP-3e (SN .003109)
Address : USB
EC-Lab for windows v11.43 (software)
Internet server v11.40 (firmware)
Command interpretor v11.40 (firmware)
Electrode material :
Initial state :
Electrolyte :
Comments :
Mass of active material : 2.477 mg
 at x = 0.000
Molecular weight of active material (at x = 0) : 0.001 g/mol
Atomic weight of intercalated ion : 0.001 g/mol
Acquisition started at : xo = 0.000
Number of e- transfered per intercalated ion : 1
for DX = 1, DQ = 66387.312 mA.h
Battery capacity : 0.557 mA.h
Electrode surface area : 0.001 cm²
Characteristic mass : 0.001 g
Volume (V) : 0.001 cm³
Record Ece
Cycle Definition : Charge/Discharge alternance
Ns                  0                   1                   2                   3
ctrl_type           CC                  CC                  CC                  CV
Apply I/C           C / N               C / N               C / N               C / N
current/potential   current             current             current             current
ctrl1_val           60.000              60.000              60.000              0.000
ctrl1_val_unit      µA                  µA                  µA                  V
ctrl1_val_vs        <None>              <None>              <None>              Emeas
ctrl2_val
ctrl2_val_unit
ctrl2_val_vs
ctrl3_val
ctrl3_val_unit
ctrl3_val_vs
N                   20.00               20.00               20.00               20.00
charge/discharge    Charge              Discharge           Charge              Charge
charge/discharge_1  Charge              Charge              Charge              Charge
Apply I/C_1         I                   I                   I                   I
N1                  0.00                0.00                0.00                0.00
ctrl4_val
ctrl4_val_unit
ctrl_seq            0                   0                   0                   0
ctrl_repeat         0                   0                   0                   0
ctrl_trigger        Falling Edge        Falling Edge        Falling Edge        Falling Edge
ctrl_TO_t           0.000               0.000               0.000               0.000
ctrl_TO_t_unit      d                   d                   d                   d
ctrl_Nd             6                   6                   6                   6
ctrl_Na             2                   2                   2                   2
ctrl_corr           0                   0                   0                   0
lim_nb              1                   1                   1                   1
lim1_type           Ewe-Ece             Ewe-Ece             Ewe-Ece             Time
lim1_comp           >                   <                   >                   >
lim1_Q              Q limit             Q limit             Q limit             Q limit
lim1_value          4.200               3.000               4.200               15.000
lim1_value_unit     V                   V                   V                   mn
lim1_action         Next sequence       Next sequence       Next sequence       Next sequence
lim1_seq            1                   2                   3                   4
rec_nb              2                   2                   2                   1
rec1_type           Time                Time                Time                Time
rec1_value          20.000              20.000              20.000              30.000
rec1_value_unit     mn                  mn                  mn                  s
rec2_type           Ewe-Ece             Ewe-Ece             Ewe-Ece             Ewe-Ece
rec2_value          0.010               0.010               0.010               0.010
rec2_value_unit     V                   V                   V                   V
E range min (V)     -10.000             -10.000             -10.000             -10.000
E range max (V)     10.000              10.000              10.000              10.000
I Range             100 µA              100 µA              100 µA              100 µA
I Range min         Unset               Unset               Unset               Unset
I Range max         Unset               Unset               Unset               Unset
I Range init        Unset               Unset               Unset               Unset
auto rest           0                   0                   0                   0
Bandwidth           5                   5                   5                   5

mode	ox/red	error	control changes	Ns changes	counter inc.	Ns	I Range	time/s	control/V/mA	Ewe/V	I/mA	dq/mA.h	(Q-Qo)/mA.h	|Energy|/W.h	Q charge/discharge/mA.h	half cycle	Ece/V	Energy charge/W.h	Energy discharge/W.h	Capacitance charge/µF	Capacitance discharge/µF	x	Q discharge/mA.h	Q charge/mA.h	Capacity/mA.h	Efficiency/%	control/V	control/mA	cycle number	P/W	Ewe-Ece/V	R/Ohm
1	1	0	1	0	0	0	13	0.000000000000000E+000	0.02785	2.6365	0.027683	0.000000000000000E+000	0.000000000000000E+000	0.000000000000000E+000	0.000000000000000E+000	0	-0.316096	0.000000000000000E+000	0.000000000000000E+000	0.000000000000000E+000	0.000000000000000E+000	0.000000000000000E+000	0.000000000000000E+000	0.000000000000000E+000	0.000000000000000E+000	0.0000000E+000	0.0000000E+000	0.02785	0.000000000000000E+000	7.29864e-05	2.9526	95238.9
1	1	0	1	0	0	0	13	0.765	0.02785	2.66387	0.0278362	2.33637e-06	5.91436e-06	1.56759e-08	5.91436e-06	0	-0.318978	1.56759e-08	0.000000000000000E+000	0.000000000000000E+000	0.000000000000000E+000	-8.90888e-11	0.000000000000000E+000	5.91436e-06	5.91436e-06	0.0000000E+000	0.0000000E+000	0.02785	0.000000000000000E+000	7.4152e-05	2.98284	95697.8
1	1	0	1	0	0	0	13	1.7384	0.02785	2.69388	0.0278413	2.6069e-06	1.34398e-05	3.58369e-08	1.34398e-05	0	-0.31915	3.58369e-08	0.000000000000000E+000	0.000000000000000E+000	0.000000000000000E+000	-2.02446e-10	0.000000000000000E+000	1.34398e-05	1.34398e-05	0.0000000E+000	0.0000000E+000	0.02785	0.000000000000000E+000	7.50012e-05	3.01303	96758.3
1	1	0	1	0	0	0	13	2.823	0.02785	2.7241	0.0278388	2.91454e-06	2.18248e-05	5.85529e-08	2.18248e-05	0	-0.319035	5.85529e-08	0.000000000000000E+000	0.000000000000000E+000	0.000000000000000E+000	-3.28749e-10	0.000000000000000E+000	2.18248e-05	2.18248e-05	0.0000000E+000	0.0000000E+000	0.02785	0.000000000000000E+000	7.58358e-05	3.04314	97852.8
1	1	0	1	0	0	0	13	4.0376	0.02785	2.75416	0.027835	3.25626e-06	3.12147e-05	8.42745e-08	3.12147e-05	0	-0.319188	8.42745e-08	0.000000000000000E+000	0.000000000000000E+000	0.000000000000000E+000	-4.70191e-10	0.000000000000000E+000	3.12147e-05	3.12147e-05	0.0000000E+000	0.0000000E+000	0.02785	0.000000000000000E+000	7.66619e-05	3.07335	98945.9
1	1	0	1	0	0	0	13	5.4174	0.02785	2.78432	0.0278331	3.69997e-06	4.18818e-05	1.13816e-07	4.18818e-05	0	-0.31915	1.13816e-07	0.000000000000000E+000	0.000000000000000E+000	0.000000000000000E+000	-6.3087e-10	0.000000000000000E+000	4.18818e-05	4.18818e-05	0.0000000E+000	0.0000000E+000	0.02785	0.000000000000000E+000	7.74963e-05	3.10347	100037
1	1	0	1	0	0	0	13	6.9976	0.02785	2.81445	0.0278324	4.28593e-06	5.40979e-05	1.48017e-07	5.40979e-05	0	-0.319169	1.48017e-07	0.000000000000000E+000	0.000000000000000E+000	0.000000000000000E+000	-8.14884e-10	0.000000000000000E+000	5.40979e-05	5.40979e-05	0.0000000E+000	0.0000000E+000	0.02785	0.000000000000000E+000	7.83331e-05	3.13362	101121
1	1	0	1	0	0	0	13	8.8078	0.02785	2.84452	0.0278375	4.81623e-06	6.80921e-05	1.87617e-07	6.80921e-05	0	-0.319264	1.87617e-07	0.000000000000000E+000	0.000000000000000E+000	0.000000000000000E+000	-1.02568e-09	0.000000000000000E+000	6.80921e-05	6.80921e-05	0.0000000E+000	0.0000000E+000	0.02785	0.000000000000000E+000	7.91845e-05	3.16379	102183
1	1	0	1	0	0	0	13	10.9102	0.02785	2.87481	0.0278312	5.69284e-06	8.43451e-05	2.34099e-07	8.43451e-05	0	-0.31915	2.34099e-07	0.000000000000000E+000	0.000000000000000E+000	0.000000000000000E+000	-1.2705e-09	0.000000000000000E+000	8.43451e-05	8.43451e-05	0.0000000E+000	0.0000000E+000	0.02785	0.000000000000000E+000	8.00092e-05	3.19396	103294
1	1	0	1	0	0	0	13	13.3924	0.02785	2.90484	0.0278382	6.80143e-06	0.000103534	2.89559e-07	0.000103534	0	-0.319264	2.89559e-07	0.000000000000000E+000	0.000000000000000E+000	0.000000000000000E+000	-1.55955e-09	0.000000000000000E+000	0.000103534	0.000103534	0.0000000E+000	0.0000000E+000	0.02785	0.000000000000000E+000	8.08653e-05	3.2241	104347
1	1	0	1	0	0	0	13	16.3632	0.02785	2.93506	0.0278229	8.14652e-06	0.0001265	3.56628e-07	0.0001265	0	-0.31915	3.56628e-07	0.000000000000000E+000	0.000000000000000E+000	0.000000000000000E+000	-1.90549e-09	0.000000000000000E+000	0.0001265	0.0001265	0.0000000E+000	0.0000000E+000	0.02785	0.000000000000000E+000	8.16619e-05	3.25421	105491
1	1	0	1	0	0	0	13	19.9602	0.02785	2.96513	0.0278331	9.94611e-06	0.000154307	4.38673e-07	0.000154307	0	-0.319303	4.38673e-07	0.000000000000000E+000	0.000000000000000E+000	0.000000000000000E+000	-2.32435e-09	0.000000000000000E+000	0.000154307	0.000154307	0.0000000E+000	0.0000000E+000	0.02785	0.000000000000000E+000	8.25288e-05	3.28444	106533
1	1	0	1	0	0	0	13	24.3972	0.02785	2.99557	0.0278286	1.22682e-05	0.000188607	5.40914e-07	0.000188607	0	-0.319207	5.40914e-07	0.000000000000000E+000	0.000000000000000E+000	0.000000000000000E+000	-2.84102e-09	0.000000000000000E+000	0.000188607	0.000188607	0.0000000E+000	0.0000000E+000	0.02785	0.000000000000000E+000	8.33625e-05	3.31478	107643
1	1	0	1	0	0	0	13	29.9646	0.02785	3.02589	0.0278305	1.55753e-05	0.000231646	6.7051e-07	0.000231646	0	-0.319055	6.7051e-07	0.000000000000000E+000	0.000000000000000E+000	0.000000000000000E+000	-3.48931e-09	0.000000000000000E+000	0.000231646	0.000231646	0.0000000E+000	0.0000000E+000	0.02785	0.000000000000000E+000	8.42121e-05	3.34494	108725
1	1	0	1	0	0	0	13	37.2452	0.02785	3.05584	0.0278273	2.07172e-05	0.000287928	8.41688e-07	0.000287928	0	-0.319207	8.41688e-07	0.000000000000000E+000	0.000000000000000E+000	0.000000000000000E+000	-4.33709e-09	0.000000000000000E+000	0.000287928	0.000287928	0.0000000E+000	0.0000000E+000	0.02785	0.000000000000000E+000	8.50361e-05	3.37505	109814
1	1	0	1	0	0	0	13	47.6012	0.02785	3.08588	0.0278305	2.99996e-05	0.000367982	1.08759e-06	0.000367982	0	-0.319245	1.08759e-06	0.000000000000000E+000	0.000000000000000E+000	0.000000000000000E+000	-5.54296e-09	0.000000000000000E+000	0.000367982	0.000367982	0.0000000E+000	0.0000000E+000	0.02785	0.000000000000000E+000	8.58816e-05	3.40512	110881
1	1	0	1	0	0	0	13	64.146	0.02785	3.11604	0.0278261	5.03453e-05	0.000495878	1.48434e-06	0.000495878	0	-0.319207	1.48434e-06	0.000000000000000E+000	0.000000000000000E+000	0.000000000000000E+000	-7.46946e-09	0.000000000000000E+000	0.000495878	0.000495878	0.0000000E+000	0.0000000E+000	0.02785	0.000000000000000E+000	8.67073e-05	3.43525	111983
1	1	0	1	0	0	0	13	96.555	0.02785	3.14602	0.0278293	0.000107758	0.000746407	2.26925e-06	0.000746407	0	-0.319322	2.26925e-06	0.000000000000000E+000	0.000000000000000E+000	0.000000000000000E+000	-1.12432e-08	0.000000000000000E+000	0.000746407	0.000746407	0.0000000E+000	0.0000000E+000	0.02785	0.000000000000000E+000	8.75514e-05	3.46534	113047
1	1	0	1	0	0	0	13	201.744	0.02785	3.17615	0.0278388	0.000400284	0.00155952	4.84215e-06	0.00155952	0	-0.319264	4.84215e-06	0.000000000000000E+000	0.000000000000000E+000	0.000000000000000E+000	-2.34913e-08	0.000000000000000E+000	0.00155952	0.00155952	0.0000000E+000	0.0000000E+000	0.02785	0.000000000000000E+000	8.84202e-05	3.49541	114091
1	1	0	1	0	0	0	13	401.73	0.02785	3.20624	0.0278331	0.00051287	0.0031054	9.77507e-06	0.0031054	0	-0.319245	9.77507e-06	0.000000000000000E+000	0.000000000000000E+000	0.000000000000000E+000	-4.6777e-08	0.000000000000000E+000	0.0031054	0.0031054	0.0000000E+000	0.0000000E+000	0.02785	0.000000000000000E+000	8.92395e-05	3.52549	115195
1	1	0	1	0	0	0	13	567.553	0.02785	3.23635	0.0278273	0.000392219	0.00438723	1.39031e-05	0.00438723	0	-0.319188	1.39031e-05	0.000000000000000E+000	0.000000000000000E+000	0.000000000000000E+000	-6.60854e-08	0.000000000000000E+000	0.00438723	0.00438723	0.0000000E+000	0.0000000E+000	0.02785	0.000000000000000E+000	9.0059e-05	3.55554	116301
1	1	0	1	0	0	0	13	702.033	0.02785	3.2664	0.0278248	0.000329388	0.00542677	1.72824e-05	0.00542677	0	-0.319226	1.72824e-05	0.000000000000000E+000	0.000000000000000E+000	0.000000000000000E+000	-8.17441e-08	0.000000000000000E+000	0.00542677	0.00542677	0.0000000E+000	0.0000000E+000	0.02785	0.000000000000000E+000	9.0887e-05	3.58563	117392
1	1	0	1	0	0	0	13	849.533	0.02785	3.29642	0.0278388	0.000464932	0.00656699	2.10253e-05	0.00656699	0	-0.319284	2.10253e-05	0.000000000000000E+000	0.000000000000000E+000	0.000000000000000E+000	-9.89193e-08	0.000000000000000E+000	0.00656699	0.00656699	0.0000000E+000	0.0000000E+000	0.02785	0.000000000000000E+000	9.17682e-05	3.6157	118411
1	1	0	1	0	0	0	13	2815.6	0.02785	3.32336	0.0278223	0.00927616	0.0217649	7.14286e-05	0.0217649	0	-0.319093	7.14286e-05	0.000000000000000E+000	0.000000000000000E+000	0.000000000000000E+000	-3.27847e-07	0.000000000000000E+000	0.0217649	0.0217649	0.0000000E+000	0.0000000E+000	0.02785	0.000000000000000E+000	9.24633e-05	3.64245	119450
1	1	0	1	0	0	0	13	6415.6	0.02785	3.33515	0.0278242	0.00927635	0.0495938	0.000164094	0.0495938	0	-0.317356	0.000164094	0.000000000000000E+000	0.000000000000000E+000	0.000000000000000E+000	-7.47037e-07	0.000000000000000E+000	0.0495938	0.0495938	0.0000000E+000	0.0000000E+000	0.02785	0.000000000000000E+000	9.27978e-05	3.65251	119865
1	1	0	1	0	0	0	13	10015.6	0.02785	3.34507	0.0278286	0.00927569	0.0774218	0.000257041	0.0774218	0	-0.316231	0.000257041	0.000000000000000E+000	0.000000000000000E+000	0.000000000000000E+000	-1.16621e-06	0.000000000000000E+000	0.0774218	0.0774218	0.0000000E+000	0.0000000E+000	0.02785	0.000000000000000E+000	9.30887e-05	3.6613	120203
1	1	0	1	0	0	0	13	13615.6	0.02785	3.35568	0.027821	0.00927551	0.105249	0.000350271	0.105249	0	-0.315506	0.000350271	0.000000000000000E+000	0.000000000000000E+000	0.000000000000000E+000	-1.58538e-06	0.000000000000000E+000	0.105249	0.105249	0.0000000E+000	0.0000000E+000	0.02785	0.000000000000000E+000	9.33584e-05	3.67119	120617
1	1	0	1	0	0	0	13	17215.6	0.02785	3.36812	0.0278229	0.00927448	0.133073	0.00044381	0.133073	0	-0.315334	0.00044381	0.000000000000000E+000	0.000000000000000E+000	0.000000000000000E+000	-2.00449e-06	0.000000000000000E+000	0.133073	0.133073	0.0000000E+000	0.0000000E+000	0.02785	0.000000000000000E+000	9.37109e-05	3.68346	121056
1	1	0	1	0	0	0	13	20815.6	0.02785	3.38207	0.0278312	0.00927614	0.160898	0.000537716	0.160898	0	-0.314952	0.000537716	0.000000000000000E+000	0.000000000000000E+000	0.000000000000000E+000	-2.42362e-06	0.000000000000000E+000	0.160898	0.160898	0.0000000E+000	0.0000000E+000	0.02785	0.000000000000000E+000	9.41269e-05	3.69702	121521
1	1	0	1	0	0	0	13	24415.6	0.02785	3.39747	0.0278331	0.00927765	0.18873	0.000632051	0.18873	0	-0.314342	0.000632051	0.000000000000000E+000	0.000000000000000E+000	0.000000000000000E+000	-2.84286e-06	0.000000000000000E+000	0.18873	0.18873	0.0000000E+000	0.0000000E+000	0.02785	0.000000000000000E+000	9.4562e-05	3.71181	122066
1	1	0	1	0	0	0	13	28015.6	0.02785	3.41695	0.0278343	0.00927821	0.216564	0.000726877	0.216564	0	-0.314094	0.000726877	0.000000000000000E+000	0.000000000000000E+000	0.000000000000000E+000	-3.26213e-06	0.000000000000000E+000	0.216564	0.216564	0.0000000E+000	0.0000000E+000	0.02785	0.000000000000000E+000	9.51086e-05	3.73104	122760
1	1	0	1	0	0	0	13	31615.6	0.02785	3.44048	0.0278432	0.00927855	0.244399	0.00082231	0.244399	0	-0.313693	0.00082231	0.000000000000000E+000	0.000000000000000E+000	0.000000000000000E+000	-3.68141e-06	0.000000000000000E+000	0.244399	0.244399	0.0000000E+000	0.0000000E+000	0.02785	0.000000000000000E+000	9.5794e-05	3.75417	123566
1	1	0	1	0	0	0	13	35215.6	0.02785	3.46599	0.0278362	0.00927893	0.272236	0.00091843	0.272236	0	-0.313159	0.00091843	0.000000000000000E+000	0.000000000000000E+000	0.000000000000000E+000	-4.10072e-06	0.000000000000000E+000	0.272236	0.272236	0.0000000E+000	0.0000000E+000	0.02785	0.000000000000000E+000	9.64801e-05	3.77915	124513
1	1	0	1	0	0	0	13	38729.1	0.02785	3.49495	0.0278432	0.00860996	0.299404	0.00101297	0.299404	0	-0.313063	0.00101297	0.000000000000000E+000	0.000000000000000E+000	0.000000000000000E+000	-4.50996e-06	0.000000000000000E+000	0.299404	0.299404	0.0000000E+000	0.0000000E+000	0.02785	0.000000000000000E+000	9.73108e-05	3.80802	125522
1	1	0	1	0	0	0	13	41652.4	0.02785	3.52527	0.0278401	0.00683537	0.32201	0.0010923	0.32201	0	-0.312834	0.0010923	0.000000000000000E+000	0.000000000000000E+000	0.000000000000000E+000	-4.85047e-06	0.000000000000000E+000	0.32201	0.32201	0.0000000E+000	0.0000000E+000	0.02785	0.000000000000000E+000	9.81438e-05	3.83811	126626
1	1	0	1	0	0	0	13	43912.2	0.02785	3.55561	0.0278356	0.00541424	0.339485	0.00115415	0.339485	0	-0.312624	0.00115415	0.000000000000000E+000	0.000000000000000E+000	0.000000000000000E+000	-5.1137e-06	0.000000000000000E+000	0.339485	0.339485	0.0000000E+000	0.0000000E+000	0.02785	0.000000000000000E+000	9.89726e-05	3.86824	127736
1	1	0	1	0	0	0	13	45905.3	0.02785	3.5861	0.0278458	0.00508758	0.354897	0.00120918	0.354897	0	-0.312281	0.00120918	0.000000000000000E+000	0.000000000000000E+000	0.000000000000000E+000	-5.34585e-06	0.000000000000000E+000	0.354897	0.354897	0.0000000E+000	0.0000000E+000	0.02785	0.000000000000000E+000	9.98578e-05	3.89838	128784
1	1	0	1	0	0	0	13	47915.5	0.02785	3.61614	0.0278477	0.00537668	0.370442	0.00126516	0.370442	0	-0.312357	0.00126516	0.000000000000000E+000	0.000000000000000E+000	0.000000000000000E+000	-5.58001e-06	0.000000000000000E+000	0.370442	0.370442	0.0000000E+000	0.0000000E+000	0.02785	0.000000000000000E+000	0.000100701	3.92849	129854
1	1	0	1	0	0	0	13	50225.5	0.02785	3.64638	0.0278382	0.0063046	0.388305	0.00133003	0.388305	0	-0.312186	0.00133003	0.000000000000000E+000	0.000000000000000E+000	0.000000000000000E+000	-5.84909e-06	0.000000000000000E+000	0.388305	0.388305	0.0000000E+000	0.0000000E+000	0.02785	0.000000000000000E+000	0.000101508	3.95856	130985
1	1	0	1	0	0	0	13	53044.2	0.02785	3.67681	0.0278343	0.00779622	0.410103	0.00140985	0.410103	0	-0.311899	0.00140985	0.000000000000000E+000	0.000000000000000E+000	0.000000000000000E+000	-6.17743e-06	0.000000000000000E+000	0.410103	0.410103	0.0000000E+000	0.0000000E+000	0.02785	0.000000000000000E+000	0.000102342	3.98871	132096
1	1	0	1	0	0	0	13	56460.3	0.02785	3.70658	0.0278401	0.00890558	0.43652	0.00150738	0.43652	0	-0.312205	0.00150738	0.000000000000000E+000	0.000000000000000E+000	0.000000000000000E+000	-6.57535e-06	0.000000000000000E+000	0.43652	0.43652	0.0000000E+000	0.0000000E+000	0.02785	0.000000000000000E+000	0.000103191	4.01878	133138
1	1	0	1	0	0	0	13	59218.8	0.02785	3.73612	0.0278432	0.00610975	0.457852	0.00158673	0.457852	0	-0.312853	0.00158673	0.000000000000000E+000	0.000000000000000E+000	0.000000000000000E+000	-6.89668e-06	0.000000000000000E+000	0.457852	0.457852	0.0000000E+000	0.0000000E+000	0.02785	0.000000000000000E+000	0.000104026	4.04897	134184
1	1	0	1	0	0	0	13	61175.1	0.02785	3.76628	0.0278394	0.00459238	0.472979	0.00164346	0.472979	0	-0.312739	0.00164346	0.000000000000000E+000	0.000000000000000E+000	0.000000000000000E+000	-7.12455e-06	0.000000000000000E+000	0.472979	0.472979	0.0000000E+000	0.0000000E+000	0.02785	0.000000000000000E+000	0.000104851	4.07902	135286
1	1	0	1	0	0	0	13	62728.5	0.02785	3.79658	0.027842	0.00386586	0.484992	0.00168888	0.484992	0	-0.312529	0.00168888	0.000000000000000E+000	0.000000000000000E+000	0.000000000000000E+000	-7.3055e-06	0.000000000000000E+000	0.484992	0.484992	0.0000000E+000	0.0000000E+000	0.02785	0.000000000000000E+000	0.000105704	4.10911	136362
1	1	0	1	0	0	0	13	64241	0.02785	3.82667	0.0278273	0.00405443	0.496684	0.00173344	0.496684	0	-0.31251	0.00173344	0.000000000000000E+000	0.000000000000000E+000	0.000000000000000E+000	-7.48161e-06	0.000000000000000E+000	0.496684	0.496684	0.0000000E+000	0.0000000E+000	0.02785	0.000000000000000E+000	0.000106486	4.13918	137515
1	1	0	1	0	0	0	13	66007.6	0.02785	3.85661	0.0278254	0.00484719	0.510337	0.0017859	0.510337	0	-0.312663	0.0017859	0.000000000000000E+000	0.000000000000000E+000	0.000000000000000E+000	-7.68727e-06	0.000000000000000E+000	0.510337	0.510337	0.0000000E+000	0.0000000E+000	0.02785	0.000000000000000E+000	0.000107312	4.16927	138600
1	1	0	1	0	0	0	13	69167.9	0.02785	3.87617	0.0278242	0.00927424	0.534762	0.00188042	0.534762	0	-0.312453	0.00188042	0.000000000000000E+000	0.000000000000000E+000	0.000000000000000E+000	-8.05518e-06	0.000000000000000E+000	0.534762	0.534762	0.0000000E+000	0.0000000E+000	0.02785	0.000000000000000E+000	0.000107851	4.18862	139309
1	1	0	1	0	0	0	13	72767.9	0.02785	3.88502	0.0278242	0.00927469	0.562585	0.00198838	0.562585	0	-0.3123	0.00198838	0.000000000000000E+000	0.000000000000000E+000	0.000000000000000E+000	-8.47429e-06	0.000000000000000E+000	0.562585	0.562585	0.0000000E+000	0.0000000E+000	0.02785	0.000000000000000E+000	0.000108098	4.19732	139628
1	0	0	0	1	0	1	13	73577.4	-0.02785	3.88806	-0.0275022	1.56395e-09	0.568842	0.0020127	0.568842	0	-0.312891	0.0020127	0.000000000000000E+000	0.000000000000000E+000	0.000000000000000E+000	-8.56854e-06	0.000000000000000E+000	0.568842	0.568842	0.0000000E+000	0.0000000E+000	-0.02785	0.000000000000000E+000	-0.00010693	4.20095	141373
1	0	0	0	0	0	1	13	75789.7	-0.02785	3.86578	-0.0278773	-0.00929254	0.55171	0.00207901	-0.017132	1	-0.311251	0.0020127	6.63073e-05	0.000000000000000E+000	0.000000000000000E+000	-8.31048e-06	0.017132	0.000000000000000E+000	0.017132	0.0000000E+000	0.0000000E+000	-0.02785	0.000000000000000E+000	-0.000107768	4.17703	138671
1	0	0	0	0	0	1	13	79389.7	-0.02785	3.84994	-0.027871	-0.0092917	0.523834	0.00218661	-0.0450081	1	-0.311193	0.0020127	0.000173912	0.000000000000000E+000	0.000000000000000E+000	-7.89057e-06	0.0450081	0.000000000000000E+000	0.0450081	0.0000000E+000	0.0000000E+000	-0.02785	0.000000000000000E+000	-0.000107302	4.16113	138134
1	0	0	0	0	0	1	13	81090.5	-0.02785	3.81997	-0.0278767	-0.00365233	0.510665	0.00223714	-0.0581773	1	-0.311041	0.0020127	0.000224437	0.000000000000000E+000	0.000000000000000E+000	-7.69221e-06	0.0581773	0.000000000000000E+000	0.0581773	0.0000000E+000	0.0000000E+000	-0.02785	0.000000000000000E+000	-0.000106488	4.13101	137031
1	0	0	0	0	0	1	13	82323.7	-0.02785	3.78987	-0.0278754	-0.00304584	0.501117	0.00227347	-0.0677253	1	-0.311041	0.0020127	0.000260771	0.000000000000000E+000	0.000000000000000E+000	-7.54838e-06	0.0677253	0.000000000000000E+000	0.0677253	0.0000000E+000	0.0000000E+000	-0.02785	0.000000000000000E+000	-0.000105644	4.10092	135958
1	0	0	0	0	0	1	13	83556.4	-0.02785	3.75975	-0.0278767	-0.00335191	0.491572	0.0023095	-0.0772702	1	-0.311041	0.0020127	0.0002968	0.000000000000000E+000	0.000000000000000E+000	-7.40461e-06	0.0772702	0.000000000000000E+000	0.0772702	0.0000000E+000	0.0000000E+000	-0.02785	0.000000000000000E+000	-0.000104809	4.07079	134871
1	0	0	0	0	0	1	13	85088.1	-0.02785	3.72971	-0.027871	-0.00435391	0.479713	0.0023539	-0.0891296	1	-0.310964	0.0020127	0.000341203	0.000000000000000E+000	0.000000000000000E+000	-7.22597e-06	0.0891296	0.000000000000000E+000	0.0891296	0.0000000E+000	0.0000000E+000	-0.02785	0.000000000000000E+000	-0.000103951	4.04068	133821
1	0	0	0	0	0	1	13	87275.7	-0.02785	3.6997	-0.0278691	-0.00646417	0.462776	0.0024168	-0.106066	1	-0.310888	0.0020127	0.000404101	0.000000000000000E+000	0.000000000000000E+000	-6.97086e-06	0.106066	0.000000000000000E+000	0.106066	0.0000000E+000	0.0000000E+000	-0.02785	0.000000000000000E+000	-0.000103107	4.01059	132753
1	0	0	0	0	0	1	13	90421	-0.02785	3.66972	-0.0278729	-0.00851254	0.438427	0.00250651	-0.130416	1	-0.310755	0.0020127	0.000493816	0.000000000000000E+000	0.000000000000000E+000	-6.60407e-06	0.130416	0.000000000000000E+000	0.130416	0.0000000E+000	0.0000000E+000	-0.02785	0.000000000000000E+000	-0.000102286	3.98048	131659
1	0	0	0	0	0	1	13	93229	-0.02785	3.63959	-0.0278697	-0.00656114	0.416687	0.00258598	-0.152155	1	-0.310793	0.0020127	0.000573285	0.000000000000000E+000	0.000000000000000E+000	-6.27661e-06	0.152155	0.000000000000000E+000	0.152155	0.0000000E+000	0.0000000E+000	-0.02785	0.000000000000000E+000	-0.000101434	3.95039	130593
1	0	0	0	0	0	1	13	95410.4	-0.02785	3.60947	-0.0278691	-0.00525205	0.399801	0.0026472	-0.169042	1	-0.31085	0.0020127	0.000634504	0.000000000000000E+000	0.000000000000000E+000	-6.02224e-06	0.169042	0.000000000000000E+000	0.169042	0.0000000E+000	0.0000000E+000	-0.02785	0.000000000000000E+000	-0.000100592	3.92032	129515
1	0	0	0	0	0	1	13	97287	-0.02785	3.57941	-0.0278722	-0.00466611	0.385272	0.00269943	-0.18357	1	-0.310755	0.0020127	0.000686732	0.000000000000000E+000	0.000000000000000E+000	-5.8034e-06	0.18357	0.000000000000000E+000	0.18357	0.0000000E+000	0.0000000E+000	-0.02785	0.000000000000000E+000	-9.97663e-05	3.89017	128422
1	0	0	0	0	0	1	13	99073.5	-0.02785	3.54932	-0.0278697	-0.00466276	0.371441	0.00274873	-0.197401	1	-0.310735	0.0020127	0.000736034	0.000000000000000E+000	0.000000000000000E+000	-5.59506e-06	0.197401	0.000000000000000E+000	0.197401	0.0000000E+000	0.0000000E+000	-0.02785	0.000000000000000E+000	-9.89186e-05	3.86006	127354
1	0	0	0	0	0	1	13	101032	-0.02785	3.51919	-0.0278754	-0.00540483	0.356276	0.00280233	-0.212566	1	-0.310812	0.0020127	0.000789627	0.000000000000000E+000	0.000000000000000E+000	-5.36663e-06	0.212566	0.000000000000000E+000	0.212566	0.0000000E+000	0.0000000E+000	-0.02785	0.000000000000000E+000	-9.8099e-05	3.83001	126247
1	0	0	0	0	0	1	13	103482	-0.02785	3.48928	-0.0278659	-0.00683488	0.337316	0.00286876	-0.231526	1	-0.310659	0.0020127	0.000856059	0.000000000000000E+000	0.000000000000000E+000	-5.08104e-06	0.231526	0.000000000000000E+000	0.231526	0.0000000E+000	0.0000000E+000	-0.02785	0.000000000000000E+000	-9.72318e-05	3.79993	125217
1	0	0	0	0	0	1	13	106566	-0.02785	3.45909	-0.0278665	-0.00843711	0.313441	0.0029517	-0.255401	1	-0.310697	0.0020127	0.000939001	0.000000000000000E+000	0.000000000000000E+000	-4.7214e-06	0.255401	0.000000000000000E+000	0.255401	0.0000000E+000	0.0000000E+000	-0.02785	0.000000000000000E+000	-9.63928e-05	3.76979	124131
1	0	0	0	0	0	1	13	109849	-0.02785	3.42894	-0.0278729	-0.00840536	0.288023	0.00303925	-0.280819	1	-0.310755	0.0020127	0.00102655	0.000000000000000E+000	0.000000000000000E+000	-4.33853e-06	0.280819	0.000000000000000E+000	0.280819	0.0000000E+000	0.0000000E+000	-0.02785	0.000000000000000E+000	-9.55745e-05	3.7397	123021
1	0	0	0	0	0	1	13	113012	-0.02785	3.39881	-0.0278742	-0.00809315	0.263537	0.00312285	-0.305305	1	-0.310755	0.0020127	0.00111015	0.000000000000000E+000	0.000000000000000E+000	-3.96969e-06	0.305305	0.000000000000000E+000	0.305305	0.0000000E+000	0.0000000E+000	-0.02785	0.000000000000000E+000	-9.4739e-05	3.70957	121934
1	0	0	0	0	0	1	13	116150	-0.02785	3.3688	-0.0278754	-0.00829963	0.239238	0.00320507	-0.329604	1	-0.310678	0.0020127	0.00119237	0.000000000000000E+000	0.000000000000000E+000	-3.60367e-06	0.329604	0.000000000000000E+000	0.329604	0.0000000E+000	0.0000000E+000	-0.02785	0.000000000000000E+000	-9.39067e-05	3.67948	120852
1	0	0	0	0	0	1	13	119674	-0.02785	3.33964	-0.0278761	-0.00929274	0.211943	0.00329661	-0.356899	1	-0.311022	0.0020127	0.00128391	0.000000000000000E+000	0.000000000000000E+000	-3.19253e-06	0.356899	0.000000000000000E+000	0.356899	0.0000000E+000	0.0000000E+000	-0.02785	0.000000000000000E+000	-9.30961e-05	3.65066	119803
1	0	0	0	0	0	1	13	122956	-0.02785	3.3107	-0.0278843	-0.00717662	0.186531	0.00338115	-0.382312	1	-0.310831	0.0020127	0.00136845	0.000000000000000E+000	0.000000000000000E+000	-2.80973e-06	0.382312	0.000000000000000E+000	0.382312	0.0000000E+000	0.0000000E+000	-0.02785	0.000000000000000E+000	-9.23165e-05	3.62153	118730
1	0	0	0	0	0	1	13	124698	-0.02785	3.28063	-0.0278818	-0.00358889	0.173044	0.00342562	-0.395798	1	-0.310812	0.0020127	0.00141292	0.000000000000000E+000	0.000000000000000E+000	-2.60659e-06	0.395798	0.000000000000000E+000	0.395798	0.0000000E+000	0.0000000E+000	-0.02785	0.000000000000000E+000	-9.14697e-05	3.59144	117662
1	0	0	0	0	0	1	13	125686	-0.02785	3.25063	-0.0278824	-0.0021596	0.165386	0.00345064	-0.403456	1	-0.310678	0.0020127	0.00143794	0.000000000000000E+000	0.000000000000000E+000	-2.49123e-06	0.403456	0.000000000000000E+000	0.403456	0.0000000E+000	0.0000000E+000	-0.02785	0.000000000000000E+000	-9.06354e-05	3.56131	116584
1	0	0	0	0	0	1	13	126343	-0.02785	3.22041	-0.0278913	-0.00148767	0.160305	0.00346708	-0.408537	1	-0.310831	0.0020127	0.00145438	0.000000000000000E+000	0.000000000000000E+000	-2.4147e-06	0.408537	0.000000000000000E+000	0.408537	0.0000000E+000	0.0000000E+000	-0.02785	0.000000000000000E+000	-8.98214e-05	3.53124	115463
1	0	0	0	0	0	1	13	126807	-0.02785	3.19024	-0.0278831	-0.00108028	0.156707	0.00347862	-0.412135	1	-0.310945	0.0020127	0.00146592	0.000000000000000E+000	0.000000000000000E+000	-2.3605e-06	0.412135	0.000000000000000E+000	0.412135	0.0000000E+000	0.0000000E+000	-0.02785	0.000000000000000E+000	-8.89536e-05	3.50118	114415
1	0	0	0	0	0	1	13	127152	-0.02785	3.16034	-0.0278792	-0.000812702	0.154034	0.00348711	-0.414808	1	-0.310735	0.0020127	0.00147441	0.000000000000000E+000	0.000000000000000E+000	-2.32023e-06	0.414808	0.000000000000000E+000	0.414808	0.0000000E+000	0.0000000E+000	-0.02785	0.000000000000000E+000	-8.81079e-05	3.47108	113358
1	0	0	0	0	0	1	13	127420	-0.02785	3.13008	-0.027878	-0.000639318	0.151957	0.00349364	-0.416885	1	-0.310869	0.0020127	0.00148094	0.000000000000000E+000	0.000000000000000E+000	-2.28895e-06	0.416885	0.000000000000000E+000	0.416885	0.0000000E+000	0.0000000E+000	-0.02785	0.000000000000000E+000	-8.72602e-05	3.44095	112278
1	0	0	0	0	0	1	13	127637	-0.02785	3.10012	-0.0278805	-0.000522563	0.150284	0.00349886	-0.418558	1	-0.310735	0.0020127	0.00148616	0.000000000000000E+000	0.000000000000000E+000	-2.26374e-06	0.418558	0.000000000000000E+000	0.418558	0.0000000E+000	0.0000000E+000	-0.02785	0.000000000000000E+000	-8.64329e-05	3.41086	111193
1	0	0	0	0	0	1	13	127818	-0.02785	3.06999	-0.0278856	-0.000442275	0.14888	0.00350319	-0.419963	1	-0.310774	0.0020127	0.00149049	0.000000000000000E+000	0.000000000000000E+000	-2.24259e-06	0.419963	0.000000000000000E+000	0.419963	0.0000000E+000	0.0000000E+000	-0.02785	0.000000000000000E+000	-8.56085e-05	3.38077	110092
1	0	0	0	0	0	1	13	127973	-0.02785	3.03981	-0.0278843	-0.000378929	0.147675	0.00350687	-0.421168	1	-0.310831	0.0020127	0.00149417	0.000000000000000E+000	0.000000000000000E+000	-2.22444e-06	0.421168	0.000000000000000E+000	0.421168	0.0000000E+000	0.0000000E+000	-0.02785	0.000000000000000E+000	-8.47629e-05	3.35064	109015
1	0	0	0	0	0	1	13	128110	-0.02785	3.00983	-0.0278831	-0.000335834	0.146618	0.00351007	-0.422224	1	-0.310716	0.0020127	0.00149737	0.000000000000000E+000	0.000000000000000E+000	-2.20853e-06	0.422224	0.000000000000000E+000	0.422224	0.0000000E+000	0.0000000E+000	-0.02785	0.000000000000000E+000	-8.39232e-05	3.32055	107945
1	0	0	0	0	0	1	13	128231	-0.02785	2.97959	-0.0278824	-0.000301223	0.14568	0.00351288	-0.423163	1	-0.310831	0.0020127	0.00150018	0.000000000000000E+000	0.000000000000000E+000	-2.19439e-06	0.423163	0.000000000000000E+000	0.423163	0.0000000E+000	0.0000000E+000	-0.02785	0.000000000000000E+000	-8.30781e-05	3.29042	106863
1	0	0	0	0	0	1	13	128340	-0.02785	2.94938	-0.0278811	-0.000275629	0.144833	0.00351539	-0.424009	1	-0.310831	0.0020127	0.00150269	0.000000000000000E+000	0.000000000000000E+000	-2.18163e-06	0.424009	0.000000000000000E+000	0.424009	0.0000000E+000	0.0000000E+000	-0.02785	0.000000000000000E+000	-8.22321e-05	3.26021	105784
1	0	0	0	0	0	1	13	128439	-0.02785	2.91931	-0.0278805	-0.00024818	0.144065	0.00351764	-0.424777	1	-0.310831	0.0020127	0.00150494	0.000000000000000E+000	0.000000000000000E+000	-2.17007e-06	0.424777	0.000000000000000E+000	0.424777	0.0000000E+000	0.0000000E+000	-0.02785	0.000000000000000E+000	-8.13919e-05	3.23014	104708
1	0	0	0	0	0	1	13	128532	-0.02785	2.88911	-0.0278805	-0.000231372	0.143352	0.00351971	-0.42549	1	-0.310907	0.0020127	0.00150701	0.000000000000000E+000	0.000000000000000E+000	-2.15933e-06	0.42549	0.000000000000000E+000	0.42549	0.0000000E+000	0.0000000E+000	-0.02785	0.000000000000000E+000	-8.05497e-05	3.20001	103625
1	0	0	0	0	0	1	13	128617	-0.02785	2.85903	-0.0278811	-0.000217552	0.142689	0.00352162	-0.426153	1	-0.310888	0.0020127	0.00150892	0.000000000000000E+000	0.000000000000000E+000	-2.14934e-06	0.426153	0.000000000000000E+000	0.426153	0.0000000E+000	0.0000000E+000	-0.02785	0.000000000000000E+000	-7.97131e-05	3.16992	102544
1	0	0	0	0	0	1	13	128698	-0.02785	2.82896	-0.0278881	-0.000204198	0.142067	0.00352339	-0.426775	1	-0.310831	0.0020127	0.00151069	0.000000000000000E+000	0.000000000000000E+000	-2.13997e-06	0.426775	0.000000000000000E+000	0.426775	0.0000000E+000	0.0000000E+000	-0.02785	0.000000000000000E+000	-7.88945e-05	3.13979	101440
1	0	0	0	0	0	1	13	128774	-0.02785	2.79876	-0.0278818	-0.000194742	0.141475	0.00352505	-0.427367	1	-0.310869	0.0020127	0.00151235	0.000000000000000E+000	0.000000000000000E+000	-2.13105e-06	0.427367	0.000000000000000E+000	0.427367	0.0000000E+000	0.0000000E+000	-0.02785	0.000000000000000E+000	-7.80343e-05	3.10963	100379
1	0	0	0	0	0	1	13	128846	-0.02785	2.76863	-0.0278761	-0.000184142	0.140915	0.00352661	-0.427928	1	-0.31085	0.0020127	0.00151391	0.000000000000000E+000	0.000000000000000E+000	-2.12261e-06	0.427928	0.000000000000000E+000	0.427928	0.0000000E+000	0.0000000E+000	-0.02785	0.000000000000000E+000	-7.71785e-05	3.07948	99319.2
1	0	0	0	0	0	1	13	128916	-0.02785	2.73854	-0.027885	-0.000177718	0.140377	0.00352809	-0.428465	1	-0.31085	0.0020127	0.00151539	0.000000000000000E+000	0.000000000000000E+000	-2.11452e-06	0.428465	0.000000000000000E+000	0.428465	0.0000000E+000	0.0000000E+000	-0.02785	0.000000000000000E+000	-7.6364e-05	3.04939	98208.4
1	0	0	0	0	0	1	13	128982	-0.02785	2.7085	-0.0278831	-0.000167567	0.139864	0.00352949	-0.428978	1	-0.310812	0.0020127	0.00151679	0.000000000000000E+000	0.000000000000000E+000	-2.10679e-06	0.428978	0.000000000000000E+000	0.428978	0.0000000E+000	0.0000000E+000	-0.02785	0.000000000000000E+000	-7.55214e-05	3.01932	97138
1	0	0	0	0	0	1	13	129024	-0.02785	2.68902	-0.0278742	-1.54856e-09	0.139539	0.00353037	-0.429303	1	-0.311117	0.0020127	0.00151767	0.000000000000000E+000	0.000000000000000E+000	-2.1019e-06	0.429303	0.000000000000000E+000	0.429303	0.0000000E+000	0.0000000E+000	-0.02785	0.000000000000000E+000	-7.49542e-05	3.00014	96470.1
1	1	0	1	0	0	2	13	129024	0.02785	2.71081	0.0278204	1.38806e-06	0.139542	0.00353037	2.58909e-06	2	-0.311766	6.99363e-09	0.000000000000000E+000	0.000000000000000E+000	0.000000000000000E+000	-2.10194e-06	0.000000000000000E+000	2.58909e-06	2.58909e-06	0.0000000E+000	0.0000000E+000	0.02785	1	7.54156e-05	3.02257	97439.6
1	1	0	1	0	0	2	13	129025	0.02785	2.74074	0.0278242	1.64928e-06	0.139547	0.00353039	7.30201e-06	2	-0.311957	1.98415e-08	0.000000000000000E+000	0.000000000000000E+000	0.000000000000000E+000	-2.10201e-06	0.000000000000000E+000	7.30201e-06	7.30201e-06	0.0000000E+000	0.0000000E+000	0.02785	1	7.62589e-05	3.0527	98502.3
1	1	0	1	0	0	2	13	129026	0.02785	2.77083	0.0278216	1.86569e-06	0.139552	0.0035304	1.2743e-05	2	-0.311918	3.48368e-08	0.000000000000000E+000	0.000000000000000E+000	0.000000000000000E+000	-2.10209e-06	0.000000000000000E+000	1.2743e-05	1.2743e-05	0.0000000E+000	0.0000000E+000	0.02785	1	7.70891e-05	3.08275	99592.8
1	1	0	1	0	0	2	13	129026	0.02785	2.80092	0.0278286	2.0682e-06	0.139558	0.00353042	1.87466e-05	2	-0.311938	5.15637e-08	0.000000000000000E+000	0.000000000000000E+000	0.000000000000000E+000	-2.10218e-06	0.000000000000000E+000	1.87466e-05	1.87466e-05	0.0000000E+000	0.0000000E+000	0.02785	1	7.79459e-05	3.11286	100649
1	1	0	1	0	0	2	13	129027	0.02785	2.83113	0.0278229	2.27686e-06	0.139565	0.00353044	2.53454e-05	2	-0.311957	7.01471e-08	0.000000000000000E+000	0.000000000000000E+000	0.000000000000000E+000	-2.10228e-06	0.000000000000000E+000	2.53454e-05	2.53454e-05	0.0000000E+000	0.0000000E+000	0.02785	1	7.87702e-05	3.14309	101755
1	1	0	1	0	0	2	13	129028	0.02785	2.86137	0.0278235	2.51026e-06	0.139572	0.00353046	3.26381e-05	2	-0.311938	9.09052e-08	0.000000000000000E+000	0.000000000000000E+000	0.000000000000000E+000	-2.10239e-06	0.000000000000000E+000	3.26381e-05	3.26381e-05	0.0000000E+000	0.0000000E+000	0.02785	1	7.96135e-05	3.17331	102840
1	1	0	1	0	0	2	13	129029	0.02785	2.89141	0.0278267	2.68951e-06	0.13958	0.00353048	4.05012e-05	2	-0.311957	1.13523e-07	0.000000000000000E+000	0.000000000000000E+000	0.000000000000000E+000	-2.10251e-06	0.000000000000000E+000	4.05012e-05	4.05012e-05	0.0000000E+000	0.0000000E+000	0.02785	1	8.04583e-05	3.20336	103908
1	1	0	1	0	0	2	13	129030	0.02785	2.92169	0.0278248	3.00335e-06	0.139589	0.00353051	4.92376e-05	2	-0.31188	1.38917e-07	0.000000000000000E+000	0.000000000000000E+000	0.000000000000000E+000	-2.10264e-06	0.000000000000000E+000	4.92376e-05	4.92376e-05	0.0000000E+000	0.0000000E+000	0.02785	1	8.12954e-05	3.23357	105003
1	1	0	1	0	0	2	13	129031	0.02785	2.95176	0.027821	3.25064e-06	0.139598	0.00353053	5.86882e-05	2	-0.311957	1.66672e-07	0.000000000000000E+000	0.000000000000000E+000	0.000000000000000E+000	-2.10278e-06	0.000000000000000E+000	5.86882e-05	5.86882e-05	0.0000000E+000	0.0000000E+000	0.02785	1	8.21208e-05	3.26372	106098
1	1	0	1	0	0	2	13	129033	0.02785	2.98185	0.0278267	3.48255e-06	0.139608	0.00353056	6.89595e-05	2	-0.311976	1.97147e-07	0.000000000000000E+000	0.000000000000000E+000	0.000000000000000E+000	-2.10294e-06	0.000000000000000E+000	6.89595e-05	6.89595e-05	0.0000000E+000	0.0000000E+000	0.02785	1	8.29751e-05	3.29382	107158
1	1	0	1	0	0	2	13	129034	0.02785	3.01203	0.0278223	3.90916e-06	0.13962	0.0035306	8.02758e-05	2	-0.311957	2.31062e-07	0.000000000000000E+000	0.000000000000000E+000	0.000000000000000E+000	-2.10311e-06	0.000000000000000E+000	8.02758e-05	8.02758e-05	0.0000000E+000	0.0000000E+000	0.02785	1	8.38016e-05	3.32399	108260
1	1	0	1	0	0	2	13	129036	0.02785	3.04213	0.0278184	4.21056e-06	0.139632	0.00353063	9.25458e-05	2	-0.311957	2.68206e-07	0.000000000000000E+000	0.000000000000000E+000	0.000000000000000E+000	-2.10329e-06	0.000000000000000E+000	9.25458e-05	9.25458e-05	0.0000000E+000	0.0000000E+000	0.02785	1	8.46272e-05	3.35408	109356
1	1	0	1	0	0	2	13	129038	0.02785	3.07227	0.0278318	4.62334e-06	0.139645	0.00353068	0.000105971	2	-0.31188	3.0925e-07	0.000000000000000E+000	0.000000000000000E+000	0.000000000000000E+000	-2.10349e-06	0.000000000000000E+000	0.000105971	0.000105971	0.0000000E+000	0.0000000E+000	0.02785	1	8.55069e-05	3.38415	110387
1	1	0	1	0	0	2	13	129039	0.02785	3.10231	0.0278305	5.09936e-06	0.13966	0.00353072	0.000120674	2	-0.311899	3.54644e-07	0.000000000000000E+000	0.000000000000000E+000	0.000000000000000E+000	-2.10372e-06	0.000000000000000E+000	0.000120674	0.000120674	0.0000000E+000	0.0000000E+000	0.02785	1	8.63388e-05	3.41421	111471
1	1	0	1	0	0	2	13	129042	0.02785	3.13228	0.027821	5.64196e-06	0.139676	0.00353077	0.000136975	2	-0.312033	4.05464e-07	0.000000000000000E+000	0.000000000000000E+000	0.000000000000000E+000	-2.10396e-06	0.000000000000000E+000	0.000136975	0.000136975	0.0000000E+000	0.0000000E+000	0.02785	1	8.71432e-05	3.44432	112587
1	1	0	1	0	0	2	13	129044	0.02785	3.16262	0.0278121	6.47975e-06	0.139695	0.00353083	0.000155631	2	-0.311899	4.64186e-07	0.000000000000000E+000	0.000000000000000E+000	0.000000000000000E+000	-2.10424e-06	0.000000000000000E+000	0.000155631	0.000155631	0.0000000E+000	0.0000000E+000	0.02785	1	8.79591e-05	3.47452	113714
1	1	0	1	0	0	2	13	129047	0.02785	3.19277	0.0278254	8.0533e-06	0.139717	0.0035309	0.000177982	2	-0.31188	5.3522e-07	0.000000000000000E+000	0.000000000000000E+000	0.000000000000000E+000	-2.10458e-06	0.000000000000000E+000	0.000177982	0.000177982	0.0000000E+000	0.0000000E+000	0.02785	1	8.88402e-05	3.50465	114743
1	1	0	1	0	0	2	13	129051	0.02785	3.2229	0.027821	1.2117e-05	0.139748	0.003531	0.00020909	2	-0.311976	6.3504e-07	0.000000000000000E+000	0.000000000000000E+000	0.000000000000000E+000	-2.10505e-06	0.000000000000000E+000	0.00020909	0.00020909	0.0000000E+000	0.0000000E+000	0.02785	1	8.96642e-05	3.53487	115844
1	1	0	1	0	0	2	13	129060	0.02785	3.25305	0.027821	3.24046e-05	0.139816	0.00353122	0.000276544	2	-0.311957	8.53641e-07	0.000000000000000E+000	0.000000000000000E+000	0.000000000000000E+000	-2.10606e-06	0.000000000000000E+000	0.000276544	0.000276544	0.0000000E+000	0.0000000E+000	0.02785	1	9.05029e-05	3.565	116928
1	1	0	1	0	0	2	13	129159	0.02785	3.28306	0.0278273	0.000541413	0.140586	0.00353374	0.00104705	2	-0.312071	3.37705e-06	0.000000000000000E+000	0.000000000000000E+000	0.000000000000000E+000	-2.11767e-06	0.000000000000000E+000	0.00104705	0.00104705	0.0000000E+000	0.0000000E+000	0.02785	1	9.13588e-05	3.59513	117980
1	1	0	1	0	0	2	13	130850	0.02785	3.31298	0.0278197	0.00730359	0.153656	0.00357691	0.0141164	2	-0.312281	4.65398e-05	0.000000000000000E+000	0.000000000000000E+000	0.000000000000000E+000	-2.31454e-06	0.000000000000000E+000	0.0141164	0.0141164	0.0000000E+000	0.0000000E+000	0.02785	1	9.21661e-05	3.62526	119087
1	1	0	1	0	0	2	13	134385	0.02785	3.34024	0.0278235	0.00927339	0.180971	0.0036678	0.0414314	2	-0.312109	0.000137429	0.000000000000000E+000	0.000000000000000E+000	0.000000000000000E+000	-2.72598e-06	0.000000000000000E+000	0.0414314	0.0414314	0.0000000E+000	0.0000000E+000	0.02785	1	9.29374e-05	3.65235	120051
1	1	0	1	0	0	2	13	137985	0.02785	3.36057	0.0278178	0.00927291	0.20879	0.003761	0.0692509	2	-0.312262	0.000230635	0.000000000000000E+000	0.000000000000000E+000	0.000000000000000E+000	-3.14503e-06	0.000000000000000E+000	0.0692509	0.0692509	0.0000000E+000	0.0000000E+000	0.02785	1	9.34836e-05	3.67283	120806
1	1	0	1	0	0	2	13	141585	0.02785	3.38613	0.0278127	0.00927246	0.236608	0.00385482	0.0970683	2	-0.3123	0.000324455	0.000000000000000E+000	0.000000000000000E+000	0.000000000000000E+000	-3.56405e-06	0.000000000000000E+000	0.0970683	0.0970683	0.0000000E+000	0.0000000E+000	0.02785	1	9.41776e-05	3.69843	121748
1	1	0	1	0	0	2	13	144984	0.02785	3.41615	0.0278172	0.00865096	0.262875	0.00394415	0.123336	2	-0.312395	0.000413785	0.000000000000000E+000	0.000000000000000E+000	0.000000000000000E+000	-3.95972e-06	0.000000000000000E+000	0.123336	0.123336	0.0000000E+000	0.0000000E+000	0.02785	1	9.50276e-05	3.72854	122807
1	1	0	1	0	0	2	13	148370	0.02785	3.44626	0.0278204	0.00881635	0.289039	0.00403392	0.1495	2	-0.312376	0.000503554	0.000000000000000E+000	0.000000000000000E+000	0.000000000000000E+000	-4.35383e-06	0.000000000000000E+000	0.1495	0.1495	0.0000000E+000	0.0000000E+000	0.02785	1	9.58761e-05	3.75863	123875
1	1	0	1	0	0	2	13	151832	0.02785	3.47644	0.0278293	0.00879332	0.315795	0.00412652	0.176255	2	-0.3123	0.000596155	0.000000000000000E+000	0.000000000000000E+000	0.000000000000000E+000	-4.75685e-06	0.000000000000000E+000	0.176255	0.176255	0.0000000E+000	0.0000000E+000	0.02785	1	9.67469e-05	3.78874	124920
1	1	0	1	0	0	2	13	154872	0.02785	3.50682	0.0278273	0.0072348	0.339291	0.00420855	0.199752	2	-0.312071	0.000678179	0.000000000000000E+000	0.000000000000000E+000	0.000000000000000E+000	-5.11079e-06	0.000000000000000E+000	0.199752	0.199752	0.0000000E+000	0.0000000E+000	0.02785	1	9.75855e-05	3.81889	126021
1	1	0	1	0	0	2	13	157224	0.02785	3.53695	0.0278261	0.00552825	0.357473	0.00427256	0.217934	2	-0.312014	0.000742198	0.000000000000000E+000	0.000000000000000E+000	0.000000000000000E+000	-5.38466e-06	0.000000000000000E+000	0.217934	0.217934	0.0000000E+000	0.0000000E+000	0.02785	1	9.84194e-05	3.84896	127109
1	1	0	1	0	0	2	13	159150	0.02785	3.56714	0.0278305	0.00481345	0.372362	0.00432544	0.232822	2	-0.311957	0.000795074	0.000000000000000E+000	0.000000000000000E+000	0.000000000000000E+000	-5.60893e-06	0.000000000000000E+000	0.232822	0.232822	0.0000000E+000	0.0000000E+000	0.02785	1	9.92753e-05	3.87909	128173
1	1	0	1	0	0	2	13	160966	0.02785	3.59725	0.0278337	0.00472532	0.386402	0.00437573	0.246862	2	-0.311976	0.000845365	0.000000000000000E+000	0.000000000000000E+000	0.000000000000000E+000	-5.82042e-06	0.000000000000000E+000	0.246862	0.246862	0.0000000E+000	0.0000000E+000	0.02785	1	0.000100125	3.90922	129241
1	1	0	1	0	0	2	13	162972	0.02785	3.62758	0.0278382	0.0054707	0.401919	0.00443179	0.262379	2	-0.311823	0.000901422	0.000000000000000E+000	0.000000000000000E+000	0.000000000000000E+000	-6.05415e-06	0.000000000000000E+000	0.262379	0.262379	0.0000000E+000	0.0000000E+000	0.02785	1	0.000100985	3.93941	130310
1	1	0	1	0	0	2	13	165465	0.02785	3.65769	0.0278401	0.00696359	0.421194	0.00450201	0.281654	2	-0.311785	0.000971642	0.000000000000000E+000	0.000000000000000E+000	0.000000000000000E+000	-6.34449e-06	0.000000000000000E+000	0.281654	0.281654	0.0000000E+000	0.0000000E+000	0.02785	1	0.00010183	3.96948	131382
1	1	0	1	0	0	2	13	168716	0.02785	3.6879	0.0278413	0.00903523	0.446329	0.00459434	0.30679	2	-0.311689	0.00106397	0.000000000000000E+000	0.000000000000000E+000	0.000000000000000E+000	-6.72311e-06	0.000000000000000E+000	0.30679	0.30679	0.0000000E+000	0.0000000E+000	0.02785	1	0.000102676	3.99959	132461
1	1	0	1	0	0	2	13	171858	0.02785	3.71816	0.0278388	0.00705488	0.470629	0.00468429	0.33109	2	-0.311518	0.00115393	0.000000000000000E+000	0.000000000000000E+000	0.000000000000000E+000	-7.08914e-06	0.000000000000000E+000	0.33109	0.33109	0.0000000E+000	0.0000000E+000	0.02785	1	0.000103509	4.02968	133560
1	1	0	1	0	0	2	13	173962	0.02785	3.74835	0.0278477	0.00479145	0.486904	0.00474503	0.347365	2	-0.311499	0.00121467	0.000000000000000E+000	0.000000000000000E+000	0.000000000000000E+000	-7.3343e-06	0.000000000000000E+000	0.347365	0.347365	0.0000000E+000	0.0000000E+000	0.02785	1	0.000104383	4.05985	134602
1	1	0	1	0	0	2	13	175503	0.02785	3.77842	0.027849	0.00366622	0.49882	0.00478987	0.359281	2	-0.311499	0.0012595	0.000000000000000E+000	0.000000000000000E+000	0.000000000000000E+000	-7.51379e-06	0.000000000000000E+000	0.359281	0.359281	0.0000000E+000	0.0000000E+000	0.02785	1	0.000105225	4.08992	135675
1	1	0	1	0	0	2	13	176829	0.02785	3.80855	0.0278375	0.0033837	0.509075	0.00482876	0.369535	2	-0.311499	0.0012984	0.000000000000000E+000	0.000000000000000E+000	0.000000000000000E+000	-7.66825e-06	0.000000000000000E+000	0.369535	0.369535	0.0000000E+000	0.0000000E+000	0.02785	1	0.00010602	4.12005	136813
1	1	0	1	0	0	2	13	178250	0.02785	3.83873	0.0278439	0.00388172	0.520064	0.00487079	0.380525	2	-0.311403	0.00134042	0.000000000000000E+000	0.000000000000000E+000	0.000000000000000E+000	-7.83379e-06	0.000000000000000E+000	0.380525	0.380525	0.0000000E+000	0.0000000E+000	0.02785	1	0.000106885	4.15014	137866
1	1	0	1	0	0	2	13	180087	0.02785	3.86858	0.0278483	0.00558003	0.534278	0.00492557	0.394738	2	-0.311613	0.00139521	0.000000000000000E+000	0.000000000000000E+000	0.000000000000000E+000	-8.04789e-06	0.000000000000000E+000	0.394738	0.394738	0.0000000E+000	0.0000000E+000	0.02785	1	0.000107733	4.18019	138916
1	1	0	1	0	0	2	13	183687	0.02785	3.88111	0.027842	0.00928185	0.562123	0.00503351	0.422584	2	-0.311613	0.00150314	0.000000000000000E+000	0.000000000000000E+000	0.000000000000000E+000	-8.46733e-06	0.000000000000000E+000	0.422584	0.422584	0.0000000E+000	0.0000000E+000	0.02785	1	0.000108058	4.19272	139398
1	1	0	1	0	0	2	13	186124	0.02785	3.88846	0.0278458	0.000284122	0.580971	0.00510673	0.441432	2	-0.311613	0.00157636	0.000000000000000E+000	0.000000000000000E+000	0.000000000000000E+000	-8.75124e-06	0.000000000000000E+000	0.441432	0.441432	0.0000000E+000	0.0000000E+000	0.02785	1	0.000108277	4.20007	139643
2	1	0	0	0	0	3	13	186154	3.88851	3.88815	0.0249143	0.000213002	0.581184	0.00510755	0.441645	2	-0.311518	0.00157719	0.000000000000000E+000	0.000000000000000E+000	0.000000000000000E+000	-8.75445e-06	0.000000000000000E+000	0.441645	0.441645	0.0000000E+000	3.88851	0.0000000E+000	1	9.68707e-05	4.19967	156061
2	1	0	0	0	0	3	13	186244	3.88851	3.88819	0.0243491	0.000202987	0.581806	0.00510997	0.442267	2	-0.31148	0.0015796	0.000000000000000E+000	0.000000000000000E+000	0.000000000000000E+000	-8.76381e-06	0.000000000000000E+000	0.442267	0.442267	0.0000000E+000	3.88851	0.0000000E+000	1	9.46741e-05	4.19967	159685
2	1	0	0	0	0	3	13	186334	3.88851	3.88825	0.0230516	0.000193174	0.582396	0.00511226	0.442856	2	-0.31148	0.0015819	0.000000000000000E+000	0.000000000000000E+000	0.000000000000000E+000	-8.7727e-06	0.000000000000000E+000	0.442856	0.442856	0.0000000E+000	3.88851	0.0000000E+000	1	8.96302e-05	4.19973	168676
2	1	0	0	0	0	3	13	186424	3.88851	3.88806	0.0216974	0.000181396	0.582951	0.00511442	0.443412	2	-0.31146	0.00158406	0.000000000000000E+000	0.000000000000000E+000	0.000000000000000E+000	-8.78106e-06	0.000000000000000E+000	0.443412	0.443412	0.0000000E+000	3.88851	0.0000000E+000	1	8.43608e-05	4.19952	179194
2	1	0	0	0	0	3	13	186514	3.88851	3.88821	0.0206516	0.000173923	0.58348	0.00511648	0.44394	2	-0.31146	0.00158611	0.000000000000000E+000	0.000000000000000E+000	0.000000000000000E+000	-8.78903e-06	0.000000000000000E+000	0.44394	0.44394	0.0000000E+000	3.88851	0.0000000E+000	1	8.02978e-05	4.19967	188276
2	1	0	0	0	0	3	13	186604	3.88851	3.88813	0.0195486	0.000166051	0.583986	0.00511845	0.444446	2	-0.311384	0.00158808	0.000000000000000E+000	0.000000000000000E+000	0.000000000000000E+000	-8.79665e-06	0.000000000000000E+000	0.444446	0.444446	0.0000000E+000	3.88851	0.0000000E+000	1	7.60074e-05	4.19952	198896
2	1	0	0	0	0	3	13	186694	3.88851	3.88819	0.0186013	0.000159018	0.58447	0.00512033	0.44493	2	-0.31146	0.00158996	0.000000000000000E+000	0.000000000000000E+000	0.000000000000000E+000	-8.80394e-06	0.000000000000000E+000	0.44493	0.44493	0.0000000E+000	3.88851	0.0000000E+000	1	7.23254e-05	4.19965	209028
2	1	0	0	0	0	3	13	186784	3.88851	3.88842	0.0184691	0.000153118	0.584935	0.00512214	0.445396	2	-0.31148	0.00159177	0.000000000000000E+000	0.000000000000000E+000	0.000000000000000E+000	-8.81095e-06	0.000000000000000E+000	0.445396	0.445396	0.0000000E+000	3.88851	0.0000000E+000	1	7.18154e-05	4.1999	210537
2	1	0	0	0	0	3	13	186874	3.88851	3.88811	0.0174531	0.000147094	0.585383	0.00512388	0.445844	2	-0.311308	0.00159351	0.000000000000000E+000	0.000000000000000E+000	0.000000000000000E+000	-8.8177e-06	0.000000000000000E+000	0.445844	0.445844	0.0000000E+000	3.88851	0.0000000E+000	1	6.78598e-05	4.19942	222775
2	1	0	0	0	0	3	13	186964	3.88851	3.88821	0.0167074	0.000141008	0.585813	0.00512555	0.446273	2	-0.311384	0.00159518	0.000000000000000E+000	0.000000000000000E+000	0.000000000000000E+000	-8.82417e-06	0.000000000000000E+000	0.446273	0.446273	0.0000000E+000	3.88851	0.0000000E+000	1	6.49618e-05	4.19959	232724
2	1	0	0	0	0	3	13	187024	3.88851	3.88808	0.0162929	0.000138517	0.586092	0.00512664	0.446553	2	-0.311365	0.00159627	0.000000000000000E+000	0.000000000000000E+000	0.000000000000000E+000	-8.82838e-06	0.000000000000000E+000	0.446553	0.446553	0.0000000E+000	3.88851	0.0000000E+000	1	6.3348e-05	4.19944	238637