File: Analyzed Data/270/270_230530_C02.mpt
EC-Lab ASCII FILE
Nb header lines : 95

Modulo Bat

Run on channel : 2 (SN 55236)
User :
CE vs. WE compliance from -10 V to 10 V
Electrode connection : standard
Potential control : Ewe
Ewe ctrl range : min = -10.00 V, max = 10.00 V
Safety Limits :
	Do not start on E overload
Acquisition started on : 05/30/2023 14:14:03.433
Technique started on : 05/30/2023 14:14:03.433
Loaded Setting File :  C:\Users\OEMS\Documents\EC-Lab\Data\Mitch\Protocols\AMIDR Form.mps
Saved on :
	File : 270_230530_C02.mpr
	Directory : C:\Users\OEMS\Documents\EC-Lab\Data\Mitch\Results\Formation\
	Host : 192.168.1.58
Device : VMP-3e (SN .003109)
Address : USB
EC-Lab for windows v11.43 (software)
Internet server v11.40 (firmware)
Command interpretor v11.40 (firmware)
Electrode material :
Initial state :
Electrolyte :
Comments :
Mass of active material : 2.157 mg
 at x = 0.000
Molecular weight of active material (at x = 0) : 0.001 g/mol
Atomic weight of intercalated ion : 0.001 g/mol
Acquisition started at : xo = 0.000
Number of e- transfered per intercalated ion : 1
for DX = 1, DQ = 57810.834 mA.h
Battery capacity : 0.485 mA.h
Electrode surface area : 0.001 cm²
Characteristic mass : 0.001 g
Volume (V) : 0.001 cm³
Record Ece
Cycle Definition : Charge/Discharge alternance
Ns                  0                   1                   2                   3
ctrl_type           CC                  CC                  CC                  CV
Apply I/C           C / N               C / N               C / N               C / N
current/potential   current             current             current             current
ctrl1_val           60.000              60.000              60.000              0.000
ctrl1_val_unit      µA                  µA                  µA                  V
ctrl1_val_vs        <None>              <None>              <None>              Emeas
ctrl2_val
ctrl2_val_unit
ctrl2_val_vs
ctrl3_val
ctrl3_val_unit
ctrl3_val_vs
N                   20.00               20.00               20.00               20.00
charge/discharge    Charge              Discharge           Charge              Charge
charge/discharge_1  Charge              Charge              Charge              Charge
Apply I/C_1         I                   I                   I                   I
N1                  0.00                0.00                0.00                0.00
ctrl4_val
ctrl4_val_unit
ctrl_seq            0                   0                   0                   0
ctrl_repeat         0                   0                   0                   0
ctrl_trigger        Falling Edge        Falling Edge        Falling Edge        Falling Edge
ctrl_TO_t           0.000               0.000               0.000               0.000
ctrl_TO_t_unit      d                   d                   d                   d
ctrl_Nd             6                   6                   6                   6
ctrl_Na             2                   2                   2                   2
ctrl_corr           0                   0                   0                   0
lim_nb              1                   1                   1                   1
lim1_type           Ewe-Ece             Ewe-Ece             Ewe-Ece             Time
lim1_comp           >                   <                   >                   >
lim1_Q              Q limit             Q limit             Q limit             Q limit
lim1_value          4.200               3.000               4.200               15.000
lim1_value_unit     V                   V                   V                   mn
lim1_action         Next sequence       Next sequence       Next sequence       Next sequence
lim1_seq            1                   2                   3                   4
rec_nb              2                   2                   2                   1
rec1_type           Time                Time                Time                Time
rec1_value          20.000              20.000              20.000              30.000
rec1_value_unit     mn                  mn                  mn                  s
rec2_type           Ewe-Ece             Ewe-Ece             Ewe-Ece             Ewe-Ece
rec2_value          0.010               0.010               0.010               0.010
rec2_value_unit     V                   V                   V                   V
E range min (V)     -10.000             -10.000             -10.000             -10.000
E range max (V)     10.000              10.000              10.000              10.000
I Range             100 µA              100 µA              100 µA              100 µA
I Range min         Unset               Unset               Unset               Unset
I Range max         Unset               Unset               Unset               Unset
I Range init        Unset               Unset               Unset               Unset
auto rest           0                   0                   0                   0
Bandwidth           5                   5                   5                   5

mode	ox/red	error	control changes	Ns changes	counter inc.	Ns	I Range	time/s	control/V/mA	Ewe/V	I/mA	dq/mA.h	(Q-Qo)/mA.h	|Energy|/W.h	Q charge/discharge/mA.h	half cycle	Ece/V	Energy charge/W.h	Energy discharge/W.h	Capacitance charge/µF	Capacitance discharge/µF	x	Q discharge/mA.h	Q charge/mA.h	Capacity/mA.h	Efficiency/%	control/V	control/mA	cycle number	P/W	Ewe-Ece/V	R/Ohm
1	1	0	0	0	0	0	13	0.000000000000000E+000	0.02425	2.63771	0.0240616	0.000000000000000E+000	0.000000000000000E+000	0.000000000000000E+000	0.000000000000000E+000	0	-0.315727	0.000000000000000E+000	0.000000000000000E+000	0.000000000000000E+000	0.000000000000000E+000	0.000000000000000E+000	0.000000000000000E+000	0.000000000000000E+000	0.000000000000000E+000	0.0000000E+000	0.0000000E+000	0.02425	0.000000000000000E+000	6.34675e-05	2.95344	109623
1	1	0	0	0	0	0	13	0.8384	0.02425	2.66568	0.0241926	2.17651e-06	5.63554e-06	1.4947e-08	5.63554e-06	0	-0.317956	1.4947e-08	0.000000000000000E+000	0.000000000000000E+000	0.000000000000000E+000	-9.74825e-11	0.000000000000000E+000	5.63554e-06	5.63554e-06	0.0000000E+000	0.0000000E+000	0.02425	0.000000000000000E+000	6.44897e-05	2.98363	110186
1	1	0	0	0	0	0	13	1.909	0.02425	2.69568	0.0242047	2.49241e-06	1.28318e-05	3.42399e-08	1.28318e-05	0	-0.318089	3.42399e-08	0.000000000000000E+000	0.000000000000000E+000	0.000000000000000E+000	-2.21963e-10	0.000000000000000E+000	1.28318e-05	1.28318e-05	0.0000000E+000	0.0000000E+000	0.02425	0.000000000000000E+000	6.52482e-05	3.01377	111370
1	1	0	0	0	0	0	13	3.1344	0.02425	2.72586	0.0241914	2.86343e-06	2.10686e-05	5.657e-08	2.10686e-05	0	-0.31807	5.657e-08	0.000000000000000E+000	0.000000000000000E+000	0.000000000000000E+000	-3.64441e-10	0.000000000000000E+000	2.10686e-05	2.10686e-05	0.0000000E+000	0.0000000E+000	0.02425	0.000000000000000E+000	6.59422e-05	3.04393	112679
1	1	0	0	0	0	0	13	4.5482	0.02425	2.75609	0.0241964	3.32445e-06	3.05715e-05	8.26193e-08	3.05715e-05	0	-0.318032	8.26193e-08	0.000000000000000E+000	0.000000000000000E+000	0.000000000000000E+000	-5.2882e-10	0.000000000000000E+000	3.05715e-05	3.05715e-05	0.0000000E+000	0.0000000E+000	0.02425	0.000000000000000E+000	6.66877e-05	3.07413	113905
1	1	0	0	0	0	0	13	6.215	0.02425	2.78621	0.0241952	3.92801e-06	4.17749e-05	1.13668e-07	4.17749e-05	0	-0.318032	1.13668e-07	0.000000000000000E+000	0.000000000000000E+000	0.000000000000000E+000	-7.22613e-10	0.000000000000000E+000	4.17749e-05	4.17749e-05	0.0000000E+000	0.0000000E+000	0.02425	0.000000000000000E+000	6.74129e-05	3.10425	115156
1	1	0	0	0	0	0	13	8.1934	0.02425	2.8163	0.024192	4.67003e-06	5.50725e-05	1.50922e-07	5.50725e-05	0	-0.318147	1.50922e-07	0.000000000000000E+000	0.000000000000000E+000	0.000000000000000E+000	-9.52633e-10	0.000000000000000E+000	5.50725e-05	5.50725e-05	0.0000000E+000	0.0000000E+000	0.02425	0.000000000000000E+000	6.81318e-05	3.13444	116414
1	1	0	0	0	0	0	13	10.5718	0.02425	2.84649	0.024206	5.61498e-06	7.10586e-05	1.96188e-07	7.10586e-05	0	-0.318089	1.96188e-07	0.000000000000000E+000	0.000000000000000E+000	0.000000000000000E+000	-1.22916e-09	0.000000000000000E+000	7.10586e-05	7.10586e-05	0.0000000E+000	0.0000000E+000	0.02425	0.000000000000000E+000	6.89022e-05	3.16458	117595
1	1	0	0	0	0	0	13	13.4348	0.02425	2.87658	0.0241983	6.74151e-06	9.03018e-05	2.5126e-07	9.03018e-05	0	-0.318127	2.5126e-07	0.000000000000000E+000	0.000000000000000E+000	0.000000000000000E+000	-1.56202e-09	0.000000000000000E+000	9.03018e-05	9.03018e-05	0.0000000E+000	0.0000000E+000	0.02425	0.000000000000000E+000	6.96084e-05	3.1947	118875
1	1	0	0	0	0	0	13	16.9902	0.02425	2.90681	0.0241958	8.46749e-06	0.000114199	3.20372e-07	0.000114199	0	-0.317994	3.20372e-07	0.000000000000000E+000	0.000000000000000E+000	0.000000000000000E+000	-1.97539e-09	0.000000000000000E+000	0.000114199	0.000114199	0.0000000E+000	0.0000000E+000	0.02425	0.000000000000000E+000	7.03326e-05	3.2248	120137
1	1	0	0	0	0	0	13	21.3988	0.02425	2.93701	0.0241958	1.05751e-05	0.00014383	4.06964e-07	0.00014383	0	-0.317937	4.06964e-07	0.000000000000000E+000	0.000000000000000E+000	0.000000000000000E+000	-2.48794e-09	0.000000000000000E+000	0.00014383	0.00014383	0.0000000E+000	0.0000000E+000	0.02425	0.000000000000000E+000	7.10632e-05	3.25494	121385
1	1	0	0	0	0	0	13	26.8618	0.02425	2.96694	0.0241958	1.32984e-05	0.000180547	5.15368e-07	0.000180547	0	-0.318051	5.15368e-07	0.000000000000000E+000	0.000000000000000E+000	0.000000000000000E+000	-3.12307e-09	0.000000000000000E+000	0.000180547	0.000180547	0.0000000E+000	0.0000000E+000	0.02425	0.000000000000000E+000	7.17874e-05	3.28499	122622
1	1	0	0	0	0	0	13	33.718	0.02425	2.99702	0.0241926	1.66574e-05	0.000226628	6.52804e-07	0.000226628	0	-0.318108	6.52804e-07	0.000000000000000E+000	0.000000000000000E+000	0.000000000000000E+000	-3.92017e-09	0.000000000000000E+000	0.000226628	0.000226628	0.0000000E+000	0.0000000E+000	0.02425	0.000000000000000E+000	7.25057e-05	3.31513	123882
1	1	0	0	0	0	0	13	42.4862	0.02425	3.02712	0.0242009	2.16082e-05	0.00028556	8.30345e-07	0.00028556	0	-0.318147	8.30345e-07	0.000000000000000E+000	0.000000000000000E+000	0.000000000000000E+000	-4.93956e-09	0.000000000000000E+000	0.00028556	0.00028556	0.0000000E+000	0.0000000E+000	0.02425	0.000000000000000E+000	7.3259e-05	3.34527	125083
1	1	0	0	0	0	0	13	54.3218	0.02425	3.05714	0.0241926	2.93129e-05	0.000365107	1.07239e-06	0.000365107	0	-0.318204	1.07239e-06	0.000000000000000E+000	0.000000000000000E+000	0.000000000000000E+000	-6.31555e-09	0.000000000000000E+000	0.000365107	0.000365107	0.0000000E+000	0.0000000E+000	0.02425	0.000000000000000E+000	7.39603e-05	3.37535	126367
1	1	0	0	0	0	0	13	71.376	0.02425	3.08711	0.0241869	4.39187e-05	0.000479728	1.42463e-06	0.000479728	0	-0.318337	1.42463e-06	0.000000000000000E+000	0.000000000000000E+000	0.000000000000000E+000	-8.29823e-09	0.000000000000000E+000	0.000479728	0.000479728	0.0000000E+000	0.0000000E+000	0.02425	0.000000000000000E+000	7.46677e-05	3.40545	127636
1	1	0	0	0	0	0	13	99.1088	0.02425	3.1171	0.0242079	7.53029e-05	0.000666118	2.00307e-06	0.000666118	0	-0.318414	2.00307e-06	0.000000000000000E+000	0.000000000000000E+000	0.000000000000000E+000	-1.15224e-08	0.000000000000000E+000	0.000666118	0.000666118	0.0000000E+000	0.0000000E+000	0.02425	0.000000000000000E+000	7.54584e-05	3.43551	128764
1	1	0	0	0	0	0	13	158.174	0.02425	3.14716	0.0241945	0.000177829	0.00106309	3.24728e-06	0.00106309	0	-0.318452	3.24728e-06	0.000000000000000E+000	0.000000000000000E+000	0.000000000000000E+000	-1.83891e-08	0.000000000000000E+000	0.00106309	0.00106309	0.0000000E+000	0.0000000E+000	0.02425	0.000000000000000E+000	7.61441e-05	3.46561	130077
1	1	0	0	0	0	0	13	363.76	0.02425	3.17705	0.0242047	0.000669407	0.00244477	7.62041e-06	0.00244477	0	-0.318605	7.62041e-06	0.000000000000000E+000	0.000000000000000E+000	0.000000000000000E+000	-4.22892e-08	0.000000000000000E+000	0.00244477	0.00244477	0.0000000E+000	0.0000000E+000	0.02425	0.000000000000000E+000	7.68996e-05	3.49566	131258
1	1	0	0	0	0	0	13	663.46	0.02425	3.20666	0.0241907	0.000567297	0.00445892	1.40467e-05	0.00445892	0	-0.319044	1.40467e-05	0.000000000000000E+000	0.000000000000000E+000	0.000000000000000E+000	-7.71295e-08	0.000000000000000E+000	0.00445892	0.00445892	0.0000000E+000	0.0000000E+000	0.02425	0.000000000000000E+000	7.75713e-05	3.5257	132557
1	1	0	0	0	0	0	13	878.382	0.02425	3.23664	0.0241945	0.000483041	0.00590332	1.86996e-05	0.00590332	0	-0.319082	1.86996e-05	0.000000000000000E+000	0.000000000000000E+000	0.000000000000000E+000	-1.02114e-07	0.000000000000000E+000	0.00590332	0.00590332	0.0000000E+000	0.0000000E+000	0.02425	0.000000000000000E+000	7.83091e-05	3.55573	133776
1	1	0	0	0	0	0	13	1224.51	0.02425	3.26642	0.0241945	0.00108821	0.00822947	2.6269e-05	0.00822947	0	-0.319311	2.6269e-05	0.000000000000000E+000	0.000000000000000E+000	0.000000000000000E+000	-1.42352e-07	0.000000000000000E+000	0.00822947	0.00822947	0.0000000E+000	0.0000000E+000	0.02425	0.000000000000000E+000	7.90295e-05	3.58573	135007
1	1	0	0	0	0	0	13	2202.79	0.02425	3.29675	0.0241939	0.00288623	0.014804	4.78557e-05	0.014804	0	-0.319024	4.78557e-05	0.000000000000000E+000	0.000000000000000E+000	0.000000000000000E+000	-2.56077e-07	0.000000000000000E+000	0.014804	0.014804	0.0000000E+000	0.0000000E+000	0.02425	0.000000000000000E+000	7.97612e-05	3.61578	136264
1	1	0	0	0	0	0	13	5551.14	0.02425	3.31771	0.0241894	0.00806446	0.0373062	0.000122346	0.0373062	0	-0.316944	0.000122346	0.000000000000000E+000	0.000000000000000E+000	0.000000000000000E+000	-6.45316e-07	0.000000000000000E+000	0.0373062	0.0373062	0.0000000E+000	0.0000000E+000	0.02425	0.000000000000000E+000	8.02535e-05	3.63465	137155
1	1	0	0	0	0	0	13	9151.14	0.02425	3.32729	0.0241939	0.00806474	0.0614999	0.00020273	0.0614999	0	-0.316124	0.00020273	0.000000000000000E+000	0.000000000000000E+000	0.000000000000000E+000	-1.06381e-06	0.000000000000000E+000	0.0614999	0.0614999	0.0000000E+000	0.0000000E+000	0.02425	0.000000000000000E+000	8.05001e-05	3.64342	137526
1	1	0	0	0	0	0	13	12751.1	0.02425	3.33718	0.0241971	0.00806481	0.0856941	0.000283348	0.0856941	0	-0.31557	0.000283348	0.000000000000000E+000	0.000000000000000E+000	0.000000000000000E+000	-1.48232e-06	0.000000000000000E+000	0.0856941	0.0856941	0.0000000E+000	0.0000000E+000	0.02425	0.000000000000000E+000	8.075e-05	3.65275	137917
1	1	0	0	0	0	0	13	16351.1	0.02425	3.34915	0.0242009	0.00806557	0.109891	0.000364237	0.109891	0	-0.315341	0.000364237	0.000000000000000E+000	0.000000000000000E+000	0.000000000000000E+000	-1.90087e-06	0.000000000000000E+000	0.109891	0.109891	0.0000000E+000	0.0000000E+000	0.02425	0.000000000000000E+000	8.10523e-05	3.66449	138389
1	1	0	0	0	0	0	13	19951.1	0.02425	3.36241	0.0242047	0.00806557	0.134088	0.000445434	0.134088	0	-0.31494	0.000445434	0.000000000000000E+000	0.000000000000000E+000	0.000000000000000E+000	-2.31942e-06	0.000000000000000E+000	0.134088	0.134088	0.0000000E+000	0.0000000E+000	0.02425	0.000000000000000E+000	8.13862e-05	3.67735	138916
1	1	0	0	0	0	0	13	23551.1	0.02425	3.37644	0.0241894	0.00806378	0.15828	0.000526943	0.15828	0	-0.31454	0.000526943	0.000000000000000E+000	0.000000000000000E+000	0.000000000000000E+000	-2.7379e-06	0.000000000000000E+000	0.15828	0.15828	0.0000000E+000	0.0000000E+000	0.02425	0.000000000000000E+000	8.16742e-05	3.69098	139583
1	1	0	0	0	0	0	13	27151.1	0.02425	3.39417	0.024185	0.00806345	0.182471	0.000608826	0.182471	0	-0.314272	0.000608826	0.000000000000000E+000	0.000000000000000E+000	0.000000000000000E+000	-3.15634e-06	0.000000000000000E+000	0.182471	0.182471	0.0000000E+000	0.0000000E+000	0.02425	0.000000000000000E+000	8.20881e-05	3.70845	140342
1	1	0	0	0	0	0	13	30751.1	0.02425	3.41691	0.024192	0.0080631	0.20666	0.000691194	0.20666	0	-0.313814	0.000691194	0.000000000000000E+000	0.000000000000000E+000	0.000000000000000E+000	-3.57477e-06	0.000000000000000E+000	0.20666	0.20666	0.0000000E+000	0.0000000E+000	0.02425	0.000000000000000E+000	8.26618e-05	3.73072	141241
1	1	0	0	0	0	0	13	34351.1	0.02425	3.44273	0.0241901	0.00806288	0.230849	0.000774156	0.230849	0	-0.313433	0.000774156	0.000000000000000E+000	0.000000000000000E+000	0.000000000000000E+000	-3.99318e-06	0.000000000000000E+000	0.230849	0.230849	0.0000000E+000	0.0000000E+000	0.02425	0.000000000000000E+000	8.328e-05	3.75617	142320
1	1	0	0	0	0	0	13	37951.1	0.02425	3.46967	0.0241837	0.00806272	0.255038	0.000857752	0.255038	0	-0.31307	0.000857752	0.000000000000000E+000	0.000000000000000E+000	0.000000000000000E+000	-4.41159e-06	0.000000000000000E+000	0.255038	0.255038	0.0000000E+000	0.0000000E+000	0.02425	0.000000000000000E+000	8.39094e-05	3.78274	143471
1	1	0	0	0	0	0	13	41422.3	0.02425	3.4998	0.0241875	0.00733688	0.27836	0.00093901	0.27836	0	-0.312956	0.00093901	0.000000000000000E+000	0.000000000000000E+000	0.000000000000000E+000	-4.81502e-06	0.000000000000000E+000	0.27836	0.27836	0.0000000E+000	0.0000000E+000	0.02425	0.000000000000000E+000	8.46516e-05	3.81276	144695
1	1	0	0	0	0	0	13	44153.6	0.02425	3.53023	0.0241869	0.00557285	0.296711	0.00100349	0.296711	0	-0.312612	0.00100349	0.000000000000000E+000	0.000000000000000E+000	0.000000000000000E+000	-5.13244e-06	0.000000000000000E+000	0.296711	0.296711	0.0000000E+000	0.0000000E+000	0.02425	0.000000000000000E+000	8.53853e-05	3.84284	145956
1	1	0	0	0	0	0	13	46314.7	0.02425	3.56043	0.0241888	0.00458585	0.311231	0.00105496	0.311231	0	-0.312498	0.00105496	0.000000000000000E+000	0.000000000000000E+000	0.000000000000000E+000	-5.3836e-06	0.000000000000000E+000	0.311231	0.311231	0.0000000E+000	0.0000000E+000	0.02425	0.000000000000000E+000	8.61225e-05	3.87292	147193
1	1	0	0	0	0	0	13	48258	0.02425	3.59051	0.0241831	0.00434921	0.324287	0.00110164	0.324287	0	-0.312459	0.00110164	0.000000000000000E+000	0.000000000000000E+000	0.000000000000000E+000	-5.60945e-06	0.000000000000000E+000	0.324287	0.324287	0.0000000E+000	0.0000000E+000	0.02425	0.000000000000000E+000	8.68296e-05	3.90297	148472
1	1	0	0	0	0	0	13	50288.9	0.02425	3.62074	0.024185	0.00476803	0.337932	0.00115084	0.337932	0	-0.312249	0.00115084	0.000000000000000E+000	0.000000000000000E+000	0.000000000000000E+000	-5.84548e-06	0.000000000000000E+000	0.337932	0.337932	0.0000000E+000	0.0000000E+000	0.02425	0.000000000000000E+000	8.75677e-05	3.93299	149710
1	1	0	0	0	0	0	13	52677.5	0.02425	3.65083	0.0241907	0.00567908	0.35398	0.00120919	0.35398	0	-0.312173	0.00120919	0.000000000000000E+000	0.000000000000000E+000	0.000000000000000E+000	-6.12307e-06	0.000000000000000E+000	0.35398	0.35398	0.0000000E+000	0.0000000E+000	0.02425	0.000000000000000E+000	8.83161e-05	3.963	150918
1	1	0	0	0	0	0	13	55598.6	0.02425	3.68089	0.0241844	0.00706644	0.373605	0.00128114	0.373605	0	-0.312135	0.00128114	0.000000000000000E+000	0.000000000000000E+000	0.000000000000000E+000	-6.46255e-06	0.000000000000000E+000	0.373605	0.373605	0.0000000E+000	0.0000000E+000	0.02425	0.000000000000000E+000	8.90199e-05	3.99302	152201
1	1	0	0	0	0	0	13	59047.7	0.02425	3.71093	0.0241914	0.00744441	0.396779	0.00136679	0.396779	0	-0.311849	0.00136679	0.000000000000000E+000	0.000000000000000E+000	0.000000000000000E+000	-6.86341e-06	0.000000000000000E+000	0.396779	0.396779	0.0000000E+000	0.0000000E+000	0.02425	0.000000000000000E+000	8.97725e-05	4.02278	153399
1	1	0	0	0	0	0	13	61617.5	0.02425	3.74107	0.0241875	0.00501923	0.414045	0.0014311	0.414045	0	-0.311753	0.0014311	0.000000000000000E+000	0.000000000000000E+000	0.000000000000000E+000	-7.16207e-06	0.000000000000000E+000	0.414045	0.414045	0.0000000E+000	0.0000000E+000	0.02425	0.000000000000000E+000	9.04873e-05	4.05283	154669
1	1	0	0	0	0	0	13	63450.2	0.02425	3.77125	0.0242022	0.00372239	0.42636	0.00147734	0.42636	0	-0.311734	0.00147734	0.000000000000000E+000	0.000000000000000E+000	0.000000000000000E+000	-7.3751e-06	0.000000000000000E+000	0.42636	0.42636	0.0000000E+000	0.0000000E+000	0.02425	0.000000000000000E+000	9.12724e-05	4.08298	155823
1	1	0	0	0	0	0	13	64949.8	0.02425	3.8011	0.0242041	0.00325096	0.43644	0.0015155	0.43644	0	-0.311925	0.0015155	0.000000000000000E+000	0.000000000000000E+000	0.000000000000000E+000	-7.54946e-06	0.000000000000000E+000	0.43644	0.43644	0.0000000E+000	0.0000000E+000	0.02425	0.000000000000000E+000	9.20022e-05	4.11303	157044
1	1	0	0	0	0	0	13	66450.9	0.02425	3.83117	0.0241964	0.0035118	0.44653	0.00155401	0.44653	0	-0.311906	0.00155401	0.000000000000000E+000	0.000000000000000E+000	0.000000000000000E+000	-7.72398e-06	0.000000000000000E+000	0.44653	0.44653	0.0000000E+000	0.0000000E+000	0.02425	0.000000000000000E+000	9.27006e-05	4.14307	158336
1	1	0	0	0	0	0	13	68266.2	0.02425	3.86111	0.0241964	0.00442045	0.458733	0.00160095	0.458733	0	-0.312001	0.00160095	0.000000000000000E+000	0.000000000000000E+000	0.000000000000000E+000	-7.93506e-06	0.000000000000000E+000	0.458733	0.458733	0.0000000E+000	0.0000000E+000	0.02425	0.000000000000000E+000	9.34252e-05	4.17312	159574
1	1	0	0	0	0	0	13	71684.3	0.02425	3.87742	0.0241933	0.00806577	0.481708	0.00168991	0.481708	0	-0.311849	0.00168991	0.000000000000000E+000	0.000000000000000E+000	0.000000000000000E+000	-8.33249e-06	0.000000000000000E+000	0.481708	0.481708	0.0000000E+000	0.0000000E+000	0.02425	0.000000000000000E+000	9.38073e-05	4.18926	160268
1	1	0	0	0	0	0	13	75284.3	0.02425	3.88545	0.0241945	0.00806509	0.505904	0.00178382	0.505904	0	-0.311811	0.00178382	0.000000000000000E+000	0.000000000000000E+000	0.000000000000000E+000	-8.75103e-06	0.000000000000000E+000	0.505904	0.505904	0.0000000E+000	0.0000000E+000	0.02425	0.000000000000000E+000	9.40067e-05	4.19726	160592
1	0	0	1	1	0	1	13	76142.4	-0.02425	3.88722	-0.0239946	1.35525e-09	0.511671	0.00180624	0.511671	0	-0.310999	0.00180624	0.000000000000000E+000	0.000000000000000E+000	0.000000000000000E+000	-8.85077e-06	0.000000000000000E+000	0.511671	0.511671	0.0000000E+000	0.0000000E+000	-0.02425	0.000000000000000E+000	-9.32721e-05	4.19822	162004
1	0	0	1	0	0	1	13	78755.9	-0.02425	3.86813	-0.0243082	-0.00810339	0.494022	0.00187458	-0.0176485	1	-0.310093	0.00180624	6.83465e-05	0.000000000000000E+000	0.000000000000000E+000	-8.5455e-06	0.0176485	0.000000000000000E+000	0.0176485	0.0000000E+000	0.0000000E+000	-0.02425	0.000000000000000E+000	-9.40272e-05	4.17823	159129
1	0	0	1	0	0	1	13	82355.9	-0.02425	3.85565	-0.0243094	-0.00810375	0.469711	0.0019685	-0.0419595	1	-0.310112	0.00180624	0.000162267	0.000000000000000E+000	0.000000000000000E+000	-8.12497e-06	0.0419595	0.000000000000000E+000	0.0419595	0.0000000E+000	0.0000000E+000	-0.02425	0.000000000000000E+000	-9.37287e-05	4.16576	158607
1	0	0	1	0	0	1	13	84193.1	-0.02425	3.82587	-0.0243107	-0.00325776	0.457305	0.00201618	-0.0543661	1	-0.309864	0.00180624	0.000209946	0.000000000000000E+000	0.000000000000000E+000	-7.91036e-06	0.0543661	0.000000000000000E+000	0.0543661	0.0000000E+000	0.0000000E+000	-0.02425	0.000000000000000E+000	-9.30097e-05	4.13574	157374
1	0	0	1	0	0	1	13	85413.8	-0.02425	3.79585	-0.0243101	-0.00262314	0.449061	0.0020476	-0.0626099	1	-0.309769	0.00180624	0.000241367	0.000000000000000E+000	0.000000000000000E+000	-7.76776e-06	0.0626099	0.000000000000000E+000	0.0626099	0.0000000E+000	0.0000000E+000	-0.02425	0.000000000000000E+000	-9.22773e-05	4.10562	156143
1	0	0	1	0	0	1	13	86615.8	-0.02425	3.76571	-0.0243132	-0.00281133	0.440943	0.0020783	-0.0707282	1	-0.309864	0.00180624	0.00027206	0.000000000000000E+000	0.000000000000000E+000	-7.62733e-06	0.0707282	0.000000000000000E+000	0.0707282	0.0000000E+000	0.0000000E+000	-0.02425	0.000000000000000E+000	-9.15566e-05	4.07557	154883
1	0	0	1	0	0	1	13	88102.6	-0.02425	3.73578	-0.0243145	-0.00368387	0.430901	0.00211596	-0.0807698	1	-0.309749	0.00180624	0.000309718	0.000000000000000E+000	0.000000000000000E+000	-7.45364e-06	0.0807698	0.000000000000000E+000	0.0807698	0.0000000E+000	0.0000000E+000	-0.02425	0.000000000000000E+000	-9.08337e-05	4.04553	153644
1	0	0	1	0	0	1	13	90223.9	-0.02425	3.70574	-0.0243158	-0.00547068	0.416574	0.00216925	-0.0950967	1	-0.309711	0.00180624	0.000363013	0.000000000000000E+000	0.000000000000000E+000	-7.20581e-06	0.0950967	0.000000000000000E+000	0.0950967	0.0000000E+000	0.0000000E+000	-0.02425	0.000000000000000E+000	-9.01079e-05	4.01545	152400
1	0	0	1	0	0	1	13	93353.9	-0.02425	3.67573	-0.0243215	-0.00758779	0.395433	0.00224727	-0.116237	1	-0.309711	0.00180624	0.000441028	0.000000000000000E+000	0.000000000000000E+000	-6.84013e-06	0.116237	0.000000000000000E+000	0.116237	0.0000000E+000	0.0000000E+000	-0.02425	0.000000000000000E+000	-8.93993e-05	3.98544	151131
1	0	0	1	0	0	1	13	96260.4	-0.02425	3.6458	-0.0243241	-0.00586841	0.375802	0.00231915	-0.135868	1	-0.309616	0.00180624	0.000512914	0.000000000000000E+000	0.000000000000000E+000	-6.50055e-06	0.135868	0.000000000000000E+000	0.135868	0.0000000E+000	0.0000000E+000	-0.02425	0.000000000000000E+000	-8.86807e-05	3.95542	149885
1	0	0	1	0	0	1	13	98433.4	-0.02425	3.61583	-0.0243164	-0.00453316	0.361126	0.00237245	-0.150545	1	-0.309578	0.00180624	0.000566212	0.000000000000000E+000	0.000000000000000E+000	-6.24668e-06	0.150545	0.000000000000000E+000	0.150545	0.0000000E+000	0.0000000E+000	-0.02425	0.000000000000000E+000	-8.79242e-05	3.92541	148699
1	0	0	1	0	0	1	13	100271	-0.02425	3.58577	-0.0243152	-0.00395923	0.348714	0.00241715	-0.162957	1	-0.309597	0.00180624	0.000610911	0.000000000000000E+000	0.000000000000000E+000	-6.03199e-06	0.162957	0.000000000000000E+000	0.162957	0.0000000E+000	0.0000000E+000	-0.02425	0.000000000000000E+000	-8.71886e-05	3.89537	147471
1	0	0	1	0	0	1	13	101991	-0.02425	3.55577	-0.0243164	-0.00387252	0.337098	0.00245863	-0.174572	1	-0.309597	0.00180624	0.000652392	0.000000000000000E+000	0.000000000000000E+000	-5.83106e-06	0.174572	0.000000000000000E+000	0.174572	0.0000000E+000	0.0000000E+000	-0.02425	0.000000000000000E+000	-8.64635e-05	3.86536	146229
1	0	0	1	0	0	1	13	103860	-0.02425	3.52576	-0.0243164	-0.00443374	0.324474	0.00250333	-0.187197	1	-0.309501	0.00180624	0.000697092	0.000000000000000E+000	0.000000000000000E+000	-5.61268e-06	0.187197	0.000000000000000E+000	0.187197	0.0000000E+000	0.0000000E+000	-0.02425	0.000000000000000E+000	-8.57339e-05	3.83526	144995
1	0	0	1	0	0	1	13	106201	-0.02425	3.49572	-0.0243152	-0.00571572	0.308662	0.00255883	-0.203009	1	-0.30952	0.00180624	0.000752597	0.000000000000000E+000	0.000000000000000E+000	-5.33917e-06	0.203009	0.000000000000000E+000	0.203009	0.0000000E+000	0.0000000E+000	-0.02425	0.000000000000000E+000	-8.49989e-05	3.80524	143767
1	0	0	1	0	0	1	13	109161	-0.02425	3.46573	-0.0243253	-0.0070146	0.288667	0.00262842	-0.223003	1	-0.309444	0.00180624	0.000822188	0.000000000000000E+000	0.000000000000000E+000	-4.99331e-06	0.223003	0.000000000000000E+000	0.223003	0.0000000E+000	0.0000000E+000	-0.02425	0.000000000000000E+000	-8.4305e-05	3.77517	142474
1	0	0	1	0	0	1	13	112424	-0.02425	3.43565	-0.0243113	-0.00731926	0.266629	0.00270448	-0.245042	1	-0.309501	0.00180624	0.000898241	0.000000000000000E+000	0.000000000000000E+000	-4.61209e-06	0.245042	0.000000000000000E+000	0.245042	0.0000000E+000	0.0000000E+000	-0.02425	0.000000000000000E+000	-8.35252e-05	3.74515	141319
1	0	0	1	0	0	1	13	115528	-0.02425	3.40572	-0.0243069	-0.00681197	0.245673	0.00277617	-0.265997	1	-0.309425	0.00180624	0.000969933	0.000000000000000E+000	0.000000000000000E+000	-4.24961e-06	0.265997	0.000000000000000E+000	0.265997	0.0000000E+000	0.0000000E+000	-0.02425	0.000000000000000E+000	-8.27824e-05	3.71514	140113
1	0	0	1	0	0	1	13	118540	-0.02425	3.37564	-0.024312	-0.00684618	0.225332	0.00284515	-0.286339	1	-0.309425	0.00180624	0.00103891	0.000000000000000E+000	0.000000000000000E+000	-3.89774e-06	0.286339	0.000000000000000E+000	0.286339	0.0000000E+000	0.0000000E+000	-0.02425	0.000000000000000E+000	-8.20684e-05	3.68506	138847
1	0	0	1	0	0	1	13	121950	-0.02425	3.34601	-0.0243018	-0.00810258	0.202305	0.00292253	-0.309365	1	-0.309692	0.00180624	0.00111629	0.000000000000000E+000	0.000000000000000E+000	-3.49944e-06	0.309365	0.000000000000000E+000	0.309365	0.0000000E+000	0.0000000E+000	-0.02425	0.000000000000000E+000	-8.13141e-05	3.6557	137686
1	0	0	1	0	0	1	13	125341	-0.02425	3.31805	-0.024305	-0.00668859	0.179412	0.00299883	-0.332259	1	-0.30933	0.00180624	0.00119259	0.000000000000000E+000	0.000000000000000E+000	-3.10343e-06	0.332259	0.000000000000000E+000	0.332259	0.0000000E+000	0.0000000E+000	-0.02425	0.000000000000000E+000	-8.06451e-05	3.62738	136517
1	0	0	1	0	0	1	13	127235	-0.02425	3.28802	-0.0243018	-0.00331181	0.166624	0.00304109	-0.345047	1	-0.309272	0.00180624	0.00123486	0.000000000000000E+000	0.000000000000000E+000	-2.88222e-06	0.345047	0.000000000000000E+000	0.345047	0.0000000E+000	0.0000000E+000	-0.02425	0.000000000000000E+000	-7.99049e-05	3.5973	135300
1	0	0	1	0	0	1	13	128237	-0.02425	3.25792	-0.0243107	-0.00188275	0.159857	0.00306325	-0.351813	1	-0.30933	0.00180624	0.00125701	0.000000000000000E+000	0.000000000000000E+000	-2.76518e-06	0.351813	0.000000000000000E+000	0.351813	0.0000000E+000	0.0000000E+000	-0.02425	0.000000000000000E+000	-7.92024e-05	3.56725	134012
1	0	0	1	0	0	1	13	128865	-0.02425	3.22792	-0.0243062	-0.00123169	0.15562	0.00307699	-0.35605	1	-0.309272	0.00180624	0.00127076	0.000000000000000E+000	0.000000000000000E+000	-2.69189e-06	0.35605	0.000000000000000E+000	0.35605	0.0000000E+000	0.0000000E+000	-0.02425	0.000000000000000E+000	-7.84585e-05	3.53719	132802
1	0	0	1	0	0	1	13	129303	-0.02425	3.19776	-0.0243056	-0.00088162	0.15266	0.00308651	-0.359011	1	-0.309406	0.00180624	0.00128027	0.000000000000000E+000	0.000000000000000E+000	-2.64068e-06	0.359011	0.000000000000000E+000	0.359011	0.0000000E+000	0.0000000E+000	-0.02425	0.000000000000000E+000	-7.77235e-05	3.50716	131565
1	0	0	1	0	0	1	13	129626	-0.02425	3.16768	-0.0242999	-0.000666403	0.150479	0.00309345	-0.361191	1	-0.30933	0.00180624	0.00128721	0.000000000000000E+000	0.000000000000000E+000	-2.60296e-06	0.361191	0.000000000000000E+000	0.361191	0.0000000E+000	0.0000000E+000	-0.02425	0.000000000000000E+000	-7.69742e-05	3.47701	130358
1	0	0	1	0	0	1	13	129877	-0.02425	3.13765	-0.0243037	-0.000524796	0.148783	0.0030988	-0.362887	1	-0.30931	0.00180624	0.00129256	0.000000000000000E+000	0.000000000000000E+000	-2.57362e-06	0.362887	0.000000000000000E+000	0.362887	0.0000000E+000	0.0000000E+000	-0.02425	0.000000000000000E+000	-7.62566e-05	3.44696	129102
1	0	0	1	0	0	1	13	130084	-0.02425	3.10757	-0.0243056	-0.000437947	0.147386	0.00310317	-0.364285	1	-0.309349	0.00180624	0.00129693	0.000000000000000E+000	0.000000000000000E+000	-2.54945e-06	0.364285	0.000000000000000E+000	0.364285	0.0000000E+000	0.0000000E+000	-0.02425	0.000000000000000E+000	-7.55314e-05	3.41692	127854
1	0	0	1	0	0	1	13	130262	-0.02425	3.07745	-0.0243062	-0.000381584	0.146183	0.00310688	-0.365487	1	-0.309444	0.00180624	0.00130065	0.000000000000000E+000	0.000000000000000E+000	-2.52865e-06	0.365487	0.000000000000000E+000	0.365487	0.0000000E+000	0.0000000E+000	-0.02425	0.000000000000000E+000	-7.48012e-05	3.38689	126611
1	0	0	1	0	0	1	13	130420	-0.02425	3.04742	-0.0243043	-0.000342275	0.14512	0.00311014	-0.366551	1	-0.30931	0.00180624	0.0013039	0.000000000000000E+000	0.000000000000000E+000	-2.51025e-06	0.366551	0.000000000000000E+000	0.366551	0.0000000E+000	0.0000000E+000	-0.02425	0.000000000000000E+000	-7.40656e-05	3.35674	125386
1	0	0	1	0	0	1	13	130563	-0.02425	3.0173	-0.0243024	-0.000311474	0.144157	0.00311306	-0.367514	1	-0.309349	0.00180624	0.00130682	0.000000000000000E+000	0.000000000000000E+000	-2.4936e-06	0.367514	0.000000000000000E+000	0.367514	0.0000000E+000	0.0000000E+000	-0.02425	0.000000000000000E+000	-7.33278e-05	3.32665	124156
1	0	0	1	0	0	1	13	130693	-0.02425	2.9872	-0.0243024	-0.000286093	0.143279	0.0031157	-0.368391	1	-0.309425	0.00180624	0.00130946	0.000000000000000E+000	0.000000000000000E+000	-2.47842e-06	0.368391	0.000000000000000E+000	0.368391	0.0000000E+000	0.0000000E+000	-0.02425	0.000000000000000E+000	-7.25963e-05	3.29663	122918
1	0	0	1	0	0	1	13	130812	-0.02425	2.95714	-0.0243024	-0.000262333	0.142471	0.0031181	-0.3692	1	-0.309425	0.00180624	0.00131186	0.000000000000000E+000	0.000000000000000E+000	-2.46443e-06	0.3692	0.000000000000000E+000	0.3692	0.0000000E+000	0.0000000E+000	-0.02425	0.000000000000000E+000	-7.18657e-05	3.26656	121681
1	0	0	1	0	0	1	13	130924	-0.02425	2.92717	-0.0243031	-0.000245824	0.141718	0.00312031	-0.369952	1	-0.309291	0.00180624	0.00131408	0.000000000000000E+000	0.000000000000000E+000	-2.45141e-06	0.369952	0.000000000000000E+000	0.369952	0.0000000E+000	0.0000000E+000	-0.02425	0.000000000000000E+000	-7.11393e-05	3.23646	120445
1	0	0	1	0	0	1	13	131027	-0.02425	2.89698	-0.024298	-0.000226145	0.141021	0.00312235	-0.37065	1	-0.309425	0.00180624	0.00131611	0.000000000000000E+000	0.000000000000000E+000	-2.43935e-06	0.37065	0.000000000000000E+000	0.37065	0.0000000E+000	0.0000000E+000	-0.02425	0.000000000000000E+000	-7.03907e-05	3.2064	119227
1	0	0	1	0	0	1	13	131123	-0.02425	2.86703	-0.0243069	-0.000210654	0.140374	0.00312421	-0.371297	1	-0.30931	0.00180624	0.00131797	0.000000000000000E+000	0.000000000000000E+000	-2.42816e-06	0.371297	0.000000000000000E+000	0.371297	0.0000000E+000	0.0000000E+000	-0.02425	0.000000000000000E+000	-6.96885e-05	3.17634	117951
1	0	0	1	0	0	1	13	131213	-0.02425	2.83695	-0.0243094	-0.000198449	0.139767	0.00312594	-0.371903	1	-0.30931	0.00180624	0.0013197	0.000000000000000E+000	0.000000000000000E+000	-2.41767e-06	0.371903	0.000000000000000E+000	0.371903	0.0000000E+000	0.0000000E+000	-0.02425	0.000000000000000E+000	-6.89645e-05	3.14626	116701
1	0	0	1	0	0	1	13	131297	-0.02425	2.80686	-0.0242986	-0.000184045	0.139202	0.00312754	-0.372469	1	-0.30933	0.00180624	0.0013213	0.000000000000000E+000	0.000000000000000E+000	-2.40789e-06	0.372469	0.000000000000000E+000	0.372469	0.0000000E+000	0.0000000E+000	-0.02425	0.000000000000000E+000	-6.82029e-05	3.11619	115515
1	0	0	1	0	0	1	13	131375	-0.02425	2.7768	-0.0243018	-0.000174449	0.138669	0.00312902	-0.373002	1	-0.309368	0.00180624	0.00132279	0.000000000000000E+000	0.000000000000000E+000	-2.39867e-06	0.373002	0.000000000000000E+000	0.373002	0.0000000E+000	0.0000000E+000	-0.02425	0.000000000000000E+000	-6.74812e-05	3.08617	114263
1	0	0	1	0	0	1	13	131450	-0.02425	2.74678	-0.0243031	-0.000164932	0.138165	0.00313042	-0.373505	1	-0.30933	0.00180624	0.00132418	0.000000000000000E+000	0.000000000000000E+000	-2.38996e-06	0.373505	0.000000000000000E+000	0.373505	0.0000000E+000	0.0000000E+000	-0.02425	0.000000000000000E+000	-6.67551e-05	3.0561	113022
1	0	0	1	0	0	1	13	131521	-0.02425	2.71658	-0.0243062	-0.000159234	0.137685	0.00313173	-0.373986	1	-0.309463	0.00180624	0.00132549	0.000000000000000E+000	0.000000000000000E+000	-2.38164e-06	0.373986	0.000000000000000E+000	0.373986	0.0000000E+000	0.0000000E+000	-0.02425	0.000000000000000E+000	-6.60298e-05	3.02604	111765
1	0	0	1	0	0	1	13	131581	-0.02425	2.69047	-0.0243043	-9.48746e-05	0.137281	0.00313282	-0.37439	1	-0.309501	0.00180624	0.00132658	0.000000000000000E+000	0.000000000000000E+000	-2.37465e-06	0.37439	0.000000000000000E+000	0.37439	0.0000000E+000	0.0000000E+000	-0.02425	0.000000000000000E+000	-6.539e-05	2.99997	110699
1	1	0	0	0	0	2	13	131581	0.02425	2.6991	0.0242009	8.48284e-07	0.137282	0.00313282	8.48284e-07	2	-0.310627	2.28626e-09	0.000000000000000E+000	0.000000000000000E+000	0.000000000000000E+000	-2.37467e-06	0.000000000000000E+000	8.48284e-07	8.48284e-07	0.0000000E+000	0.0000000E+000	0.02425	1	6.53206e-05	3.00973	111529
1	1	0	0	0	0	2	13	131582	0.02425	2.72928	0.0242041	1.41293e-06	0.137286	0.00313283	4.78458e-06	2	-0.310589	1.2972e-08	0.000000000000000E+000	0.000000000000000E+000	0.000000000000000E+000	-2.37474e-06	0.000000000000000E+000	4.78458e-06	4.78458e-06	0.0000000E+000	0.0000000E+000	0.02425	1	6.60596e-05	3.03987	112761
1	1	0	0	0	0	2	13	131583	0.02425	2.75932	0.0242003	1.59037e-06	0.13729	0.00313285	9.34195e-06	2	-0.310704	2.54797e-08	0.000000000000000E+000	0.000000000000000E+000	0.000000000000000E+000	-2.37482e-06	0.000000000000000E+000	9.34195e-06	9.34195e-06	0.0000000E+000	0.0000000E+000	0.02425	1	6.67763e-05	3.07002	114020
1	1	0	0	0	0	2	13	131583	0.02425	2.78933	0.0242015	1.78263e-06	0.137295	0.00313286	1.44505e-05	2	-0.310837	3.96534e-08	0.000000000000000E+000	0.000000000000000E+000	0.000000000000000E+000	-2.3749e-06	0.000000000000000E+000	1.44505e-05	1.44505e-05	0.0000000E+000	0.0000000E+000	0.02425	1	6.75059e-05	3.10016	115254
1	1	0	0	0	0	2	13	131584	0.02425	2.81948	0.0242015	1.94798e-06	0.137301	0.00313288	2.01184e-05	2	-0.310818	5.55493e-08	0.000000000000000E+000	0.000000000000000E+000	0.000000000000000E+000	-2.375e-06	0.000000000000000E+000	2.01184e-05	2.01184e-05	0.0000000E+000	0.0000000E+000	0.02425	1	6.82358e-05	3.1303	116500
1	1	0	0	0	0	2	13	131585	0.02425	2.84957	0.0242015	2.17788e-06	0.137307	0.00313289	2.63832e-05	2	-0.31078	7.33079e-08	0.000000000000000E+000	0.000000000000000E+000	0.000000000000000E+000	-2.37511e-06	0.000000000000000E+000	2.63832e-05	2.63832e-05	0.0000000E+000	0.0000000E+000	0.02425	1	6.89639e-05	3.16035	117743
1	1	0	0	0	0	2	13	131586	0.02425	2.87955	0.0241952	2.36207e-06	0.137314	0.00313291	3.32596e-05	2	-0.310971	9.30067e-08	0.000000000000000E+000	0.000000000000000E+000	0.000000000000000E+000	-2.37523e-06	0.000000000000000E+000	3.32596e-05	3.32596e-05	0.0000000E+000	0.0000000E+000	0.02425	1	6.96713e-05	3.19052	119014
1	1	0	0	0	0	2	13	131587	0.02425	2.90958	0.0242015	2.58384e-06	0.137322	0.00313294	4.08903e-05	2	-0.310971	1.15095e-07	0.000000000000000E+000	0.000000000000000E+000	0.000000000000000E+000	-2.37536e-06	0.000000000000000E+000	4.08903e-05	4.08903e-05	0.0000000E+000	0.0000000E+000	0.02425	1	7.04162e-05	3.22055	120223
1	1	0	0	0	0	2	13	131588	0.02425	2.93979	0.0241945	2.84334e-06	0.13733	0.00313296	4.93343e-05	2	-0.310894	1.39791e-07	0.000000000000000E+000	0.000000000000000E+000	0.000000000000000E+000	-2.37551e-06	0.000000000000000E+000	4.93343e-05	4.93343e-05	0.0000000E+000	0.0000000E+000	0.02425	1	7.11269e-05	3.25069	121507
1	1	0	0	0	0	2	13	131590	0.02425	2.97001	0.0241939	3.24663e-06	0.137339	0.00313299	5.87072e-05	2	-0.310818	1.67488e-07	0.000000000000000E+000	0.000000000000000E+000	0.000000000000000E+000	-2.37567e-06	0.000000000000000E+000	5.87072e-05	5.87072e-05	0.0000000E+000	0.0000000E+000	0.02425	1	7.18561e-05	3.28083	122759
1	1	0	0	0	0	2	13	131591	0.02425	3	0.0242009	3.51147e-06	0.13735	0.00313302	6.8923e-05	2	-0.310914	1.97983e-07	0.000000000000000E+000	0.000000000000000E+000	0.000000000000000E+000	-2.37585e-06	0.000000000000000E+000	6.8923e-05	6.8923e-05	0.0000000E+000	0.0000000E+000	0.02425	1	7.26026e-05	3.31091	123962
1	1	0	0	0	0	2	13	131593	0.02425	3.03023	0.0242034	3.90134e-06	0.137361	0.00313305	8.03124e-05	2	-0.310818	2.32324e-07	0.000000000000000E+000	0.000000000000000E+000	0.000000000000000E+000	-2.37604e-06	0.000000000000000E+000	8.03124e-05	8.03124e-05	0.0000000E+000	0.0000000E+000	0.02425	1	7.3342e-05	3.34105	125198
1	1	0	0	0	0	2	13	131595	0.02425	3.06022	0.0241901	4.34094e-06	0.137374	0.00313309	9.28526e-05	2	-0.310914	2.70514e-07	0.000000000000000E+000	0.000000000000000E+000	0.000000000000000E+000	-2.37626e-06	0.000000000000000E+000	9.28526e-05	9.28526e-05	0.0000000E+000	0.0000000E+000	0.02425	1	7.40269e-05	3.37113	126507
1	1	0	0	0	0	2	13	131597	0.02425	3.09034	0.0241996	4.872e-06	0.137387	0.00313313	0.000106654	2	-0.310875	3.12959e-07	0.000000000000000E+000	0.000000000000000E+000	0.000000000000000E+000	-2.3765e-06	0.000000000000000E+000	0.000106654	0.000106654	0.0000000E+000	0.0000000E+000	0.02425	1	7.4785e-05	3.40121	127702
1	1	0	0	0	0	2	13	131599	0.02425	3.12053	0.0242015	5.4433e-06	0.137403	0.00313318	0.000122176	2	-0.310875	3.61163e-07	0.000000000000000E+000	0.000000000000000E+000	0.000000000000000E+000	-2.37677e-06	0.000000000000000E+000	0.000122176	0.000122176	0.0000000E+000	0.0000000E+000	0.02425	1	7.55217e-05	3.43141	128940
1	1	0	0	0	0	2	13	131602	0.02425	3.15044	0.0241958	6.19081e-06	0.13742	0.00313324	0.000139739	2	-0.311028	4.16236e-07	0.000000000000000E+000	0.000000000000000E+000	0.000000000000000E+000	-2.37707e-06	0.000000000000000E+000	0.000139739	0.000139739	0.0000000E+000	0.0000000E+000	0.02425	1	7.62275e-05	3.46147	130206
1	1	0	0	0	0	2	13	131605	0.02425	3.1806	0.0241971	7.33496e-06	0.137441	0.0031333	0.000160472	2	-0.310971	4.81876e-07	0.000000000000000E+000	0.000000000000000E+000	0.000000000000000E+000	-2.37743e-06	0.000000000000000E+000	0.000160472	0.000160472	0.0000000E+000	0.0000000E+000	0.02425	1	7.69613e-05	3.49157	131446
1	1	0	0	0	0	2	13	131609	0.02425	3.21049	0.0242047	1.00022e-05	0.137468	0.00313339	0.000187441	2	-0.311143	5.68079e-07	0.000000000000000E+000	0.000000000000000E+000	0.000000000000000E+000	-2.3779e-06	0.000000000000000E+000	0.000187441	0.000187441	0.0000000E+000	0.0000000E+000	0.02425	1	7.77091e-05	3.52164	132639
1	1	0	0	0	0	2	13	131616	0.02425	3.24071	0.0242047	2.02609e-05	0.137515	0.00313354	0.000234582	2	-0.310971	7.20221e-07	0.000000000000000E+000	0.000000000000000E+000	0.000000000000000E+000	-2.37871e-06	0.000000000000000E+000	0.000234582	0.000234582	0.0000000E+000	0.0000000E+000	0.02425	1	7.84404e-05	3.55168	133888
1	1	0	0	0	0	2	13	131648	0.02425	3.27056	0.024199	0.000128455	0.137732	0.00313425	0.000451009	2	-0.311162	1.4259e-06	0.000000000000000E+000	0.000000000000000E+000	0.000000000000000E+000	-2.38246e-06	0.000000000000000E+000	0.000451009	0.000451009	0.0000000E+000	0.0000000E+000	0.02425	1	7.91443e-05	3.58172	135153
1	1	0	0	0	0	2	13	132297	0.02425	3.30057	0.0242028	0.00287046	0.142095	0.00314861	0.00481439	2	-0.311219	1.57891e-05	0.000000000000000E+000	0.000000000000000E+000	0.000000000000000E+000	-2.45793e-06	0.000000000000000E+000	0.00481439	0.00481439	0.0000000E+000	0.0000000E+000	0.02425	1	7.9883e-05	3.61179	136371
1	1	0	0	0	0	2	13	135435	0.02425	3.33019	0.0242028	0.00806639	0.163186	0.00321856	0.0259049	2	-0.311009	8.57384e-05	0.000000000000000E+000	0.000000000000000E+000	0.000000000000000E+000	-2.82275e-06	0.000000000000000E+000	0.0259049	0.0259049	0.0000000E+000	0.0000000E+000	0.02425	1	8.06e-05	3.6412	137595
1	1	0	0	0	0	2	13	139035	0.02425	3.35216	0.0241958	0.00806692	0.187386	0.00329943	0.0501051	2	-0.3112	0.00016661	0.000000000000000E+000	0.000000000000000E+000	0.000000000000000E+000	-3.24136e-06	0.000000000000000E+000	0.0501051	0.0501051	0.0000000E+000	0.0000000E+000	0.02425	1	8.11083e-05	3.66336	138543
1	1	0	0	0	0	2	13	142635	0.02425	3.374	0.0242022	0.00806697	0.211587	0.0033808	0.0743061	2	-0.3112	0.000247984	0.000000000000000E+000	0.000000000000000E+000	0.000000000000000E+000	-3.65999e-06	0.000000000000000E+000	0.0743061	0.0743061	0.0000000E+000	0.0000000E+000	0.02425	1	8.16581e-05	3.6852	139409
1	1	0	0	0	0	2	13	146136	0.02425	3.40318	0.0242028	0.00763634	0.235121	0.00346054	0.0978403	2	-0.311429	0.000327718	0.000000000000000E+000	0.000000000000000E+000	0.000000000000000E+000	-4.06708e-06	0.000000000000000E+000	0.0978403	0.0978403	0.0000000E+000	0.0000000E+000	0.02425	1	8.23666e-05	3.71461	140611
1	1	0	0	0	0	2	13	149428	0.02425	3.43321	0.0242022	0.00742066	0.257254	0.00353619	0.119973	2	-0.311448	0.000403366	0.000000000000000E+000	0.000000000000000E+000	0.000000000000000E+000	-4.44992e-06	0.000000000000000E+000	0.119973	0.119973	0.0000000E+000	0.0000000E+000	0.02425	1	8.30911e-05	3.74466	141855
1	1	0	0	0	0	2	13	152827	0.02425	3.46339	0.0241894	0.00767892	0.280098	0.00361496	0.142817	2	-0.311353	0.000482137	0.000000000000000E+000	0.000000000000000E+000	0.000000000000000E+000	-4.84508e-06	0.000000000000000E+000	0.142817	0.142817	0.0000000E+000	0.0000000E+000	0.02425	1	8.37774e-05	3.77474	143178
1	1	0	0	0	0	2	13	156054	0.02425	3.49358	0.0241914	0.00680138	0.301783	0.00369037	0.164502	2	-0.311257	0.000557552	0.000000000000000E+000	0.000000000000000E+000	0.000000000000000E+000	-5.22017e-06	0.000000000000000E+000	0.164502	0.164502	0.0000000E+000	0.0000000E+000	0.02425	1	8.45145e-05	3.80484	144415
1	1	0	0	0	0	2	13	158649	0.02425	3.5238	0.0241971	0.00531272	0.31922	0.00375154	0.181939	2	-0.311104	0.000618717	0.000000000000000E+000	0.000000000000000E+000	0.000000000000000E+000	-5.5218e-06	0.000000000000000E+000	0.181939	0.181939	0.0000000E+000	0.0000000E+000	0.02425	1	8.52656e-05	3.8349	145629
1	1	0	0	0	0	2	13	160671	0.02425	3.5539	0.0241971	0.00425245	0.332806	0.00379961	0.195526	2	-0.311066	0.000666787	0.000000000000000E+000	0.000000000000000E+000	0.000000000000000E+000	-5.75681e-06	0.000000000000000E+000	0.195526	0.195526	0.0000000E+000	0.0000000E+000	0.02425	1	8.5994e-05	3.86497	146873
1	1	0	0	0	0	2	13	162452	0.02425	3.58391	0.0241901	0.00396147	0.344779	0.00384233	0.207498	2	-0.311143	0.000709512	0.000000000000000E+000	0.000000000000000E+000	0.000000000000000E+000	-5.96392e-06	0.000000000000000E+000	0.207498	0.207498	0.0000000E+000	0.0000000E+000	0.02425	1	8.66949e-05	3.89505	148156
1	1	0	0	0	0	2	13	164295	0.02425	3.61403	0.0241933	0.00430151	0.357161	0.0038869	0.219881	2	-0.311104	0.000754077	0.000000000000000E+000	0.000000000000000E+000	0.000000000000000E+000	-6.17811e-06	0.000000000000000E+000	0.219881	0.219881	0.0000000E+000	0.0000000E+000	0.02425	1	8.7435e-05	3.92513	149382
1	1	0	0	0	0	2	13	166508	0.02425	3.64426	0.0241875	0.00534691	0.372031	0.00394087	0.23475	2	-0.310971	0.000808046	0.000000000000000E+000	0.000000000000000E+000	0.000000000000000E+000	-6.43532e-06	0.000000000000000E+000	0.23475	0.23475	0.0000000E+000	0.0000000E+000	0.02425	1	8.81457e-05	3.95523	150667
1	1	0	0	0	0	2	13	169387	0.02425	3.67425	0.0241837	0.00706167	0.391369	0.00401164	0.254089	2	-0.311047	0.000878819	0.000000000000000E+000	0.000000000000000E+000	0.000000000000000E+000	-6.76983e-06	0.000000000000000E+000	0.254089	0.254089	0.0000000E+000	0.0000000E+000	0.02425	1	8.88569e-05	3.98529	151931
1	1	0	0	0	0	2	13	172837	0.02425	3.70439	0.0241869	0.00751045	0.414548	0.00409715	0.277267	2	-0.310933	0.000964325	0.000000000000000E+000	0.000000000000000E+000	0.000000000000000E+000	-7.17076e-06	0.000000000000000E+000	0.277267	0.277267	0.0000000E+000	0.0000000E+000	0.02425	1	8.95976e-05	4.01532	153157
1	1	0	0	0	0	2	13	175367	0.02425	3.73458	0.0241894	0.00495922	0.431546	0.00416035	0.294265	2	-0.310818	0.00102753	0.000000000000000E+000	0.000000000000000E+000	0.000000000000000E+000	-7.4648e-06	0.000000000000000E+000	0.294265	0.294265	0.0000000E+000	0.0000000E+000	0.02425	1	9.03375e-05	4.0454	154389
1	1	0	0	0	0	2	13	177098	0.02425	3.76465	0.0241901	0.00352505	0.443176	0.00420394	0.305895	2	-0.31078	0.00107112	0.000000000000000E+000	0.000000000000000E+000	0.000000000000000E+000	-7.66596e-06	0.000000000000000E+000	0.305895	0.305895	0.0000000E+000	0.0000000E+000	0.02425	1	9.10671e-05	4.07543	155628
1	1	0	0	0	0	2	13	178465	0.02425	3.79471	0.0241888	0.00290664	0.452356	0.00423864	0.315076	2	-0.310761	0.00110582	0.000000000000000E+000	0.000000000000000E+000	0.000000000000000E+000	-7.82477e-06	0.000000000000000E+000	0.315076	0.315076	0.0000000E+000	0.0000000E+000	0.02425	1	9.17895e-05	4.10547	156879
1	1	0	0	0	0	2	13	179785	0.02425	3.82466	0.0241888	0.00303997	0.461226	0.00427243	0.323945	2	-0.310818	0.00113961	0.000000000000000E+000	0.000000000000000E+000	0.000000000000000E+000	-7.97819e-06	0.000000000000000E+000	0.323945	0.323945	0.0000000E+000	0.0000000E+000	0.02425	1	9.25139e-05	4.13548	158117
1	1	0	0	0	0	2	13	181340	0.02425	3.85461	0.0241793	0.00371386	0.471675	0.00431255	0.334395	2	-0.310971	0.00117973	0.000000000000000E+000	0.000000000000000E+000	0.000000000000000E+000	-8.15894e-06	0.000000000000000E+000	0.334395	0.334395	0.0000000E+000	0.0000000E+000	0.02425	1	9.32015e-05	4.16558	159418
1	1	0	0	0	0	2	13	184316	0.02425	3.87782	0.0241818	0.00806126	0.491662	0.00438991	0.354381	2	-0.311009	0.00125709	0.000000000000000E+000	0.000000000000000E+000	0.000000000000000E+000	-8.50467e-06	0.000000000000000E+000	0.354381	0.354381	0.0000000E+000	0.0000000E+000	0.02425	1	9.37726e-05	4.18883	160361
1	1	0	0	0	0	2	13	187916	0.02425	3.8869	0.0241894	0.00806143	0.515846	0.0044838	0.378565	2	-0.310818	0.00135098	0.000000000000000E+000	0.000000000000000E+000	0.000000000000000E+000	-8.923e-06	0.000000000000000E+000	0.378565	0.378565	0.0000000E+000	0.0000000E+000	0.02425	1	9.4022e-05	4.19772	160686
2	1	0	1	1	0	3	13	188602	3.88892	3.88894	0.0140716	7.50087e-09	0.520454	0.00450171	0.383173	2	-0.310704	0.00136889	0.000000000000000E+000	0.000000000000000E+000	0.000000000000000E+000	-9.00271e-06	0.000000000000000E+000	0.383173	0.383173	0.0000000E+000	3.88892	0.0000000E+000	1	5.47238e-05	4.19965	276368
2	1	0	1	0	0	3	13	188692	3.88892	3.88959	0.0258484	0.000217684	0.521145	0.0045044	0.383865	2	-0.311009	0.00137158	0.000000000000000E+000	0.000000000000000E+000	0.000000000000000E+000	-9.01467e-06	0.000000000000000E+000	0.383865	0.383865	0.0000000E+000	3.88892	0.0000000E+000	1	0.00010054	4.2006	150477
2	1	0	1	0	0	3	13	188782	3.88892	3.88975	0.0232563	0.000198336	0.521758	0.00450678	0.384477	2	-0.310799	0.00137396	0.000000000000000E+000	0.000000000000000E+000	0.000000000000000E+000	-9.02526e-06	0.000000000000000E+000	0.384477	0.384477	0.0000000E+000	3.88892	0.0000000E+000	1	9.0461e-05	4.20054	167256
2	1	0	1	0	0	3	13	188872	3.88892	3.88967	0.0218378	0.000184644	0.522325	0.00450899	0.385045	2	-0.310914	0.00137617	0.000000000000000E+000	0.000000000000000E+000	0.000000000000000E+000	-9.03508e-06	0.000000000000000E+000	0.385045	0.385045	0.0000000E+000	3.88892	0.0000000E+000	1	8.49417e-05	4.20058	178117
2	1	0	1	0	0	3	13	188962	3.88892	3.88969	0.0205974	0.000174208	0.522858	0.00451106	0.385577	2	-0.310933	0.00137824	0.000000000000000E+000	0.000000000000000E+000	0.000000000000000E+000	-9.04428e-06	0.000000000000000E+000	0.385577	0.385577	0.0000000E+000	3.88892	0.0000000E+000	1	8.01174e-05	4.20062	188844
2	1	0	1	0	0	3	13	189052	3.88892	3.88969	0.0194301	0.000164345	0.52336	0.00451302	0.386079	2	-0.310704	0.0013802	0.000000000000000E+000	0.000000000000000E+000	0.000000000000000E+000	-9.05297e-06	0.000000000000000E+000	0.386079	0.386079	0.0000000E+000	3.88892	0.0000000E+000	1	7.55772e-05	4.20039	200188
2	1	0	1	0	0	3	13	189142	3.88892	3.88963	0.0184766	0.000155872	0.523836	0.00451487	0.386555	2	-0.310894	0.00138205	0.000000000000000E+000	0.000000000000000E+000	0.000000000000000E+000	-9.06121e-06	0.000000000000000E+000	0.386555	0.386555	0.0000000E+000	3.88892	0.0000000E+000	1	7.18672e-05	4.20053	210516
2	1	0	1	0	0	3	13	189232	3.88892	3.88956	0.0175982	0.000148477	0.524288	0.00451663	0.387007	2	-0.310761	0.00138381	0.000000000000000E+000	0.000000000000000E+000	0.000000000000000E+000	-9.06903e-06	0.000000000000000E+000	0.387007	0.387007	0.0000000E+000	3.88892	0.0000000E+000	1	6.8449e-05	4.20032	221020
2	1	0	1	0	0	3	13	189322	3.88892	3.8898	0.0163196	0.000141134	0.524718	0.0045183	0.387438	2	-0.310761	0.00138548	0.000000000000000E+000	0.000000000000000E+000	0.000000000000000E+000	-9.07647e-06	0.000000000000000E+000	0.387438	0.387438	0.0000000E+000	3.88892	0.0000000E+000	1	6.348e-05	4.20056	238352
2	1	0	1	0	0	3	13	189412	3.88892	3.88946	0.0160842	0.000135152	0.52513	0.0045199	0.387849	2	-0.310646	0.00138708	0.000000000000000E+000	0.000000000000000E+000	0.000000000000000E+000	-9.08359e-06	0.000000000000000E+000	0.387849	0.387849	0.0000000E+000	3.88892	0.0000000E+000	1	6.2559e-05	4.20011	241818
2	1	0	1	0	0	3	13	189502	3.88892	3.88963	0.0154965	0.000129392	0.525524	0.00452143	0.388243	2	-0.310761	0.00138861	0.000000000000000E+000	0.000000000000000E+000	0.000000000000000E+000	-9.09041e-06	0.000000000000000E+000	0.388243	0.388243	0.0000000E+000	3.88892	0.0000000E+000	1	6.02756e-05	4.20039	251001