File: Fresh Data/272/272_230607_C06.mpt
EC-Lab ASCII FILE
Nb header lines : 95

Modulo Bat

Run on channel : 6 (SN 55238)
User :
CE vs. WE compliance from -10 V to 10 V
Electrode connection : standard
Potential control : Ewe
Ewe ctrl range : min = -10.00 V, max = 10.00 V
Safety Limits :
	Do not start on E overload
Acquisition started on : 06/07/2023 17:15:45.677
Technique started on : 06/07/2023 17:15:45.677
Loaded Setting File :  C:\Users\OEMS\Documents\EC-Lab\Data\Mitch\Protocols\AMIDR Form.mps
Saved on :
	File : 272_230607_C06.mpr
	Directory : C:\Users\OEMS\Documents\EC-Lab\Data\Mitch\Results\Formation\
	Host : 192.168.1.58
Device : VMP-3e (SN .003109)
Address : USB
EC-Lab for windows v11.43 (software)
Internet server v11.40 (firmware)
Command interpretor v11.40 (firmware)
Electrode material :
Initial state :
Electrolyte :
Comments :
Mass of active material : 1.754 mg
 at x = 0.000
Molecular weight of active material (at x = 0) : 0.001 g/mol
Atomic weight of intercalated ion : 0.001 g/mol
Acquisition started at : xo = 0.000
Number of e- transfered per intercalated ion : 1
for DX = 1, DQ = 47009.827 mA.h
Battery capacity : 0.395 mA.h
Electrode surface area : 0.001 cm²
Characteristic mass : 0.001 g
Volume (V) : 0.001 cm³
Record Ece
Cycle Definition : Charge/Discharge alternance
Ns                  0                   1                   2                   3
ctrl_type           CC                  CC                  CC                  CV
Apply I/C           C / N               C / N               C / N               C / N
current/potential   current             current             current             current
ctrl1_val           60.000              60.000              60.000              0.000
ctrl1_val_unit      µA                  µA                  µA                  V
ctrl1_val_vs        <None>              <None>              <None>              Emeas
ctrl2_val
ctrl2_val_unit
ctrl2_val_vs
ctrl3_val
ctrl3_val_unit
ctrl3_val_vs
N                   20.00               20.00               20.00               20.00
charge/discharge    Charge              Discharge           Charge              Charge
charge/discharge_1  Charge              Charge              Charge              Charge
Apply I/C_1         I                   I                   I                   I
N1                  0.00                0.00                0.00                0.00
ctrl4_val
ctrl4_val_unit
ctrl_seq            0                   0                   0                   0
ctrl_repeat         0                   0                   0                   0
ctrl_trigger        Falling Edge        Falling Edge        Falling Edge        Falling Edge
ctrl_TO_t           0.000               0.000               0.000               0.000
ctrl_TO_t_unit      d                   d                   d                   d
ctrl_Nd             6                   6                   6                   6
ctrl_Na             2                   2                   2                   2
ctrl_corr           0                   0                   0                   0
lim_nb              1                   1                   1                   1
lim1_type           Ewe-Ece             Ewe-Ece             Ewe-Ece             Time
lim1_comp           >                   <                   >                   >
lim1_Q              Q limit             Q limit             Q limit             Q limit
lim1_value          4.200               3.000               4.200               15.000
lim1_value_unit     V                   V                   V                   mn
lim1_action         Next sequence       Next sequence       Next sequence       Next sequence
lim1_seq            1                   2                   3                   4
rec_nb              2                   2                   2                   1
rec1_type           Time                Time                Time                Time
rec1_value          20.000              20.000              20.000              30.000
rec1_value_unit     mn                  mn                  mn                  s
rec2_type           Ewe-Ece             Ewe-Ece             Ewe-Ece             Ewe-Ece
rec2_value          0.010               0.010               0.010               0.010
rec2_value_unit     V                   V                   V                   V
E range min (V)     -10.000             -10.000             -10.000             -10.000
E range max (V)     10.000              10.000              10.000              10.000
I Range             10 µA               10 µA               10 µA               10 µA
I Range min         Unset               Unset               Unset               Unset
I Range max         Unset               Unset               Unset               Unset
I Range init        Unset               Unset               Unset               Unset
auto rest           0                   0                   0                   0
Bandwidth           5                   5                   5                   5

mode	ox/red	error	control changes	Ns changes	counter inc.	Ns	I Range	time/s	control/V/mA	Ewe/V	I/mA	dq/mA.h	(Q-Qo)/mA.h	|Energy|/W.h	Q charge/discharge/mA.h	half cycle	Ece/V	Energy charge/W.h	Energy discharge/W.h	Capacitance charge/µF	Capacitance discharge/µF	x	Q discharge/mA.h	Q charge/mA.h	Capacity/mA.h	Efficiency/%	control/V	control/mA	cycle number	P/W	Ewe-Ece/V	R/Ohm
1	1	0	0	0	0	0	14	0.000000000000000E+000	0.01975	2.70378	0.0196195	0.000000000000000E+000	0.000000000000000E+000	0.000000000000000E+000	0.000000000000000E+000	0	-0.310497	0.000000000000000E+000	0.000000000000000E+000	0.000000000000000E+000	0.000000000000000E+000	0.000000000000000E+000	0.000000000000000E+000	0.000000000000000E+000	0.000000000000000E+000	0.0000000E+000	0.0000000E+000	0.01975	0.000000000000000E+000	5.30467e-05	3.01428	137811
1	1	0	0	0	0	0	14	0.641	0.01975	2.73125	0.0197529	1.3926e-06	3.51715e-06	9.56015e-09	3.51715e-06	0	-0.313155	9.56015e-09	0.000000000000000E+000	0.000000000000000E+000	0.000000000000000E+000	-7.48173e-11	0.000000000000000E+000	3.51715e-06	3.51715e-06	0.0000000E+000	0.0000000E+000	0.01975	0.000000000000000E+000	5.395e-05	3.0444	138271
1	1	0	0	0	0	0	14	1.46	0.01975	2.76157	0.0197535	1.53526e-06	8.01099e-06	2.19024e-08	8.01099e-06	0	-0.313155	2.19024e-08	0.000000000000000E+000	0.000000000000000E+000	0.000000000000000E+000	-1.70411e-10	0.000000000000000E+000	8.01099e-06	8.01099e-06	0.0000000E+000	0.0000000E+000	0.01975	0.000000000000000E+000	5.45507e-05	3.07473	139802
1	1	0	0	0	0	0	14	2.3586	0.01975	2.79187	0.0197524	1.67243e-06	1.29416e-05	3.55937e-08	1.29416e-05	0	-0.313136	3.55937e-08	0.000000000000000E+000	0.000000000000000E+000	0.000000000000000E+000	-2.75295e-10	0.000000000000000E+000	1.29416e-05	1.29416e-05	0.0000000E+000	0.0000000E+000	0.01975	0.000000000000000E+000	5.51461e-05	3.10501	141344
1	1	0	0	0	0	0	14	3.3408	0.01975	2.82212	0.0197536	1.8535e-06	1.83309e-05	5.07225e-08	1.83309e-05	0	-0.313193	5.07225e-08	0.000000000000000E+000	0.000000000000000E+000	0.000000000000000E+000	-3.89938e-10	0.000000000000000E+000	1.83309e-05	1.83309e-05	0.0000000E+000	0.0000000E+000	0.01975	0.000000000000000E+000	5.57469e-05	3.13531	142866
1	1	0	0	0	0	0	14	4.4218	0.01975	2.85215	0.0197537	2.04445e-06	2.42623e-05	6.75518e-08	2.42623e-05	0	-0.31327	6.75518e-08	0.000000000000000E+000	0.000000000000000E+000	0.000000000000000E+000	-5.16112e-10	0.000000000000000E+000	2.42623e-05	2.42623e-05	0.0000000E+000	0.0000000E+000	0.01975	0.000000000000000E+000	5.63405e-05	3.16542	144386
1	1	0	0	0	0	0	14	5.6598	0.01975	2.8823	0.0197531	2.36709e-06	3.10552e-05	8.70302e-08	3.10552e-05	0	-0.313251	8.70302e-08	0.000000000000000E+000	0.000000000000000E+000	0.000000000000000E+000	-6.60611e-10	0.000000000000000E+000	3.10552e-05	3.10552e-05	0.0000000E+000	0.0000000E+000	0.01975	0.000000000000000E+000	5.69344e-05	3.19555	145916
1	1	0	0	0	0	0	14	7.0834	0.01975	2.91245	0.0197532	2.70838e-06	3.88665e-05	1.09665e-07	3.88665e-05	0	-0.313251	1.09665e-07	0.000000000000000E+000	0.000000000000000E+000	0.000000000000000E+000	-8.26774e-10	0.000000000000000E+000	3.88665e-05	3.88665e-05	0.0000000E+000	0.0000000E+000	0.01975	0.000000000000000E+000	5.75301e-05	3.2257	147442
1	1	0	0	0	0	0	14	8.785	0.01975	2.94258	0.0197538	3.2878e-06	4.82032e-05	1.37001e-07	4.82032e-05	0	-0.313308	1.37001e-07	0.000000000000000E+000	0.000000000000000E+000	0.000000000000000E+000	-1.02538e-09	0.000000000000000E+000	4.82032e-05	4.82032e-05	0.0000000E+000	0.0000000E+000	0.01975	0.000000000000000E+000	5.81271e-05	3.25588	148962
1	1	0	0	0	0	0	14	10.883	0.01975	2.97282	0.0197537	4.17998e-06	5.97148e-05	1.71055e-07	5.97148e-05	0	-0.313308	1.71055e-07	0.000000000000000E+000	0.000000000000000E+000	0.000000000000000E+000	-1.27026e-09	0.000000000000000E+000	5.97148e-05	5.97148e-05	0.0000000E+000	0.0000000E+000	0.01975	0.000000000000000E+000	5.87242e-05	3.28613	150494
1	1	0	0	0	0	0	14	13.5258	0.01975	3.00291	0.019753	5.23018e-06	7.42158e-05	2.14389e-07	7.42158e-05	0	-0.313365	2.14389e-07	0.000000000000000E+000	0.000000000000000E+000	0.000000000000000E+000	-1.57873e-09	0.000000000000000E+000	7.42158e-05	7.42158e-05	0.0000000E+000	0.0000000E+000	0.01975	0.000000000000000E+000	5.93165e-05	3.31628	152023
1	1	0	0	0	0	0	14	17.0196	0.01975	3.033	0.0197534	6.96738e-06	9.33862e-05	2.72256e-07	9.33862e-05	0	-0.313403	2.72256e-07	0.000000000000000E+000	0.000000000000000E+000	0.000000000000000E+000	-1.98653e-09	0.000000000000000E+000	9.33862e-05	9.33862e-05	0.0000000E+000	0.0000000E+000	0.01975	0.000000000000000E+000	5.99121e-05	3.34641	153544
1	1	0	0	0	0	0	14	21.8966	0.01975	3.06285	0.0197527	1.00258e-05	0.000120146	3.5384e-07	0.000120146	0	-0.31367	3.5384e-07	0.000000000000000E+000	0.000000000000000E+000	0.000000000000000E+000	-2.55577e-09	0.000000000000000E+000	0.000120146	0.000120146	0.0000000E+000	0.0000000E+000	0.01975	0.000000000000000E+000	6.04994e-05	3.37652	155060
1	1	0	0	0	0	0	14	29.4848	0.01975	3.09305	0.0197531	1.62831e-05	0.000161782	4.82042e-07	0.000161782	0	-0.313613	4.82042e-07	0.000000000000000E+000	0.000000000000000E+000	0.000000000000000E+000	-3.44146e-09	0.000000000000000E+000	0.000161782	0.000161782	0.0000000E+000	0.0000000E+000	0.01975	0.000000000000000E+000	6.10973e-05	3.40667	156586
1	1	0	0	0	0	0	14	43.3436	0.01975	3.12305	0.0197531	3.13898e-05	0.000237825	7.18503e-07	0.000237825	0	-0.313899	7.18503e-07	0.000000000000000E+000	0.000000000000000E+000	0.000000000000000E+000	-5.05906e-09	0.000000000000000E+000	0.000237825	0.000237825	0.0000000E+000	0.0000000E+000	0.01975	0.000000000000000E+000	6.16898e-05	3.43695	158105
1	1	0	0	0	0	0	14	75.8228	0.01975	3.15306	0.0197533	7.9325e-05	0.000416038	1.27813e-06	0.000416038	0	-0.314033	1.27813e-06	0.000000000000000E+000	0.000000000000000E+000	0.000000000000000E+000	-8.85001e-09	0.000000000000000E+000	0.000416038	0.000416038	0.0000000E+000	0.0000000E+000	0.01975	0.000000000000000E+000	6.22833e-05	3.4671	159623
1	1	0	0	0	0	0	14	173.367	0.01975	3.18298	0.0197537	0.0002503	0.000951259	2.97514e-06	0.000951259	0	-0.314186	2.97514e-06	0.000000000000000E+000	0.000000000000000E+000	0.000000000000000E+000	-2.02353e-08	0.000000000000000E+000	0.000951259	0.000951259	0.0000000E+000	0.0000000E+000	0.01975	0.000000000000000E+000	6.28757e-05	3.49717	161134
1	1	0	0	0	0	0	14	395.457	0.01975	3.21306	0.0197531	0.000458167	0.00216986	6.8732e-06	0.00216986	0	-0.314262	6.8732e-06	0.000000000000000E+000	0.000000000000000E+000	0.000000000000000E+000	-4.61575e-08	0.000000000000000E+000	0.00216986	0.00216986	0.0000000E+000	0.0000000E+000	0.01975	0.000000000000000E+000	6.34677e-05	3.52732	162661
1	1	0	0	0	0	0	14	669.852	0.01975	3.24321	0.0197533	0.000529571	0.00367545	1.17335e-05	0.00367545	0	-0.314224	1.17335e-05	0.000000000000000E+000	0.000000000000000E+000	0.000000000000000E+000	-7.81848e-08	0.000000000000000E+000	0.00367545	0.00367545	0.0000000E+000	0.0000000E+000	0.01975	0.000000000000000E+000	6.40639e-05	3.55743	164186
1	1	0	0	0	0	0	14	1053.56	0.01975	3.27379	0.0197537	0.000840552	0.00578086	1.85966e-05	0.00578086	0	-0.313747	1.85966e-05	0.000000000000000E+000	0.000000000000000E+000	0.000000000000000E+000	-1.22971e-07	0.000000000000000E+000	0.00578086	0.00578086	0.0000000E+000	0.0000000E+000	0.01975	0.000000000000000E+000	6.46695e-05	3.58754	165731
1	1	0	0	0	0	0	14	3504.78	0.01975	3.30367	0.019754	0.00621286	0.0192308	6.28904e-05	0.0192308	0	-0.313957	6.28904e-05	0.000000000000000E+000	0.000000000000000E+000	0.000000000000000E+000	-4.09081e-07	0.000000000000000E+000	0.0192308	0.0192308	0.0000000E+000	0.0000000E+000	0.01975	0.000000000000000E+000	6.52606e-05	3.61763	167241
1	1	0	0	0	0	0	14	7104.79	0.01975	3.32192	0.0197535	0.00658442	0.0389842	0.000128349	0.0389842	0	-0.313308	0.000128349	0.000000000000000E+000	0.000000000000000E+000	0.000000000000000E+000	-8.29278e-07	0.000000000000000E+000	0.0389842	0.0389842	0.0000000E+000	0.0000000E+000	0.01975	0.000000000000000E+000	6.56195e-05	3.63522	168168
1	1	0	0	0	0	0	14	10704.8	0.01975	3.33441	0.0197536	0.00658436	0.0587374	0.000194092	0.0587374	0	-0.312984	0.000194092	0.000000000000000E+000	0.000000000000000E+000	0.000000000000000E+000	-1.24947e-06	0.000000000000000E+000	0.0587374	0.0587374	0.0000000E+000	0.0000000E+000	0.01975	0.000000000000000E+000	6.58668e-05	3.6474	168800
1	1	0	0	0	0	0	14	14304.8	0.01975	3.3481	0.0197532	0.00658432	0.0784904	0.000260085	0.0784904	0	-0.312965	0.000260085	0.000000000000000E+000	0.000000000000000E+000	0.000000000000000E+000	-1.66966e-06	0.000000000000000E+000	0.0784904	0.0784904	0.0000000E+000	0.0000000E+000	0.01975	0.000000000000000E+000	6.61356e-05	3.66106	169496
1	1	0	0	0	0	0	14	17904.8	0.01975	3.36611	0.0197531	0.00658431	0.0982433	0.00032639	0.0982433	0	-0.312793	0.00032639	0.000000000000000E+000	0.000000000000000E+000	0.000000000000000E+000	-2.08985e-06	0.000000000000000E+000	0.0982433	0.0982433	0.0000000E+000	0.0000000E+000	0.01975	0.000000000000000E+000	6.6491e-05	3.6789	170409
1	1	0	0	0	0	0	14	21504.8	0.01975	3.38945	0.0197523	0.00658427	0.117996	0.000393105	0.117996	0	-0.312678	0.000393105	0.000000000000000E+000	0.000000000000000E+000	0.000000000000000E+000	-2.51003e-06	0.000000000000000E+000	0.117996	0.117996	0.0000000E+000	0.0000000E+000	0.01975	0.000000000000000E+000	6.69493e-05	3.70212	171598
1	1	0	0	0	0	0	14	25104.8	0.01975	3.4145	0.019753	0.00658425	0.137749	0.000460304	0.137749	0	-0.312621	0.000460304	0.000000000000000E+000	0.000000000000000E+000	0.000000000000000E+000	-2.93022e-06	0.000000000000000E+000	0.137749	0.137749	0.0000000E+000	0.0000000E+000	0.01975	0.000000000000000E+000	6.74466e-05	3.72712	172860
1	1	0	0	0	0	0	14	28704.8	0.01975	3.43765	0.0197526	0.00658424	0.157502	0.00052798	0.157502	0	-0.312373	0.00052798	0.000000000000000E+000	0.000000000000000E+000	0.000000000000000E+000	-3.3504e-06	0.000000000000000E+000	0.157502	0.157502	0.0000000E+000	0.0000000E+000	0.01975	0.000000000000000E+000	6.79025e-05	3.75002	174035
1	1	0	0	0	0	0	14	32304.8	0.01975	3.46077	0.0197529	0.00658422	0.177254	0.000596108	0.177254	0	-0.312392	0.000596108	0.000000000000000E+000	0.000000000000000E+000	0.000000000000000E+000	-3.77058e-06	0.000000000000000E+000	0.177254	0.177254	0.0000000E+000	0.0000000E+000	0.01975	0.000000000000000E+000	6.83604e-05	3.77316	175203
1	1	0	0	0	0	0	14	35830.8	0.01975	3.48829	0.0197526	0.0061784	0.196601	0.000663315	0.196601	0	-0.312697	0.000663315	0.000000000000000E+000	0.000000000000000E+000	0.000000000000000E+000	-4.18213e-06	0.000000000000000E+000	0.196601	0.196601	0.0000000E+000	0.0000000E+000	0.01975	0.000000000000000E+000	6.89026e-05	3.80099	176599
1	1	0	0	0	0	0	14	38665.4	0.01975	3.51847	0.0197529	0.00465979	0.212154	0.000717786	0.212154	0	-0.312621	0.000717786	0.000000000000000E+000	0.000000000000000E+000	0.000000000000000E+000	-4.51297e-06	0.000000000000000E+000	0.212154	0.212154	0.0000000E+000	0.0000000E+000	0.01975	0.000000000000000E+000	6.95002e-05	3.8311	178124
1	1	0	0	0	0	0	14	40869.1	0.01975	3.54857	0.0197524	0.00379027	0.224245	0.000760503	0.224245	0	-0.31264	0.000760503	0.000000000000000E+000	0.000000000000000E+000	0.000000000000000E+000	-4.77018e-06	0.000000000000000E+000	0.224245	0.224245	0.0000000E+000	0.0000000E+000	0.01975	0.000000000000000E+000	7.00928e-05	3.86121	179652
1	1	0	0	0	0	0	14	42812.5	0.01975	3.57864	0.0197522	0.00348983	0.234908	0.000798498	0.234908	0	-0.312659	0.000798498	0.000000000000000E+000	0.000000000000000E+000	0.000000000000000E+000	-4.99701e-06	0.000000000000000E+000	0.234908	0.234908	0.0000000E+000	0.0000000E+000	0.01975	0.000000000000000E+000	7.06859e-05	3.8913	181177
1	1	0	0	0	0	0	14	44693.7	0.01975	3.60875	0.019752	0.00345808	0.24523	0.00083559	0.24523	0	-0.312621	0.00083559	0.000000000000000E+000	0.000000000000000E+000	0.000000000000000E+000	-5.21657e-06	0.000000000000000E+000	0.24523	0.24523	0.0000000E+000	0.0000000E+000	0.01975	0.000000000000000E+000	7.12802e-05	3.92137	182703
1	1	0	0	0	0	0	14	46620	0.01975	3.63878	0.0197526	0.00359731	0.255799	0.00087389	0.255799	0	-0.312659	0.00087389	0.000000000000000E+000	0.000000000000000E+000	0.000000000000000E+000	-5.4414e-06	0.000000000000000E+000	0.255799	0.255799	0.0000000E+000	0.0000000E+000	0.01975	0.000000000000000E+000	7.18755e-05	3.95144	184218
1	1	0	0	0	0	0	14	48649.8	0.01975	3.66889	0.0197529	0.00376537	0.266936	0.000914582	0.266936	0	-0.31264	0.000914582	0.000000000000000E+000	0.000000000000000E+000	0.000000000000000E+000	-5.67831e-06	0.000000000000000E+000	0.266936	0.266936	0.0000000E+000	0.0000000E+000	0.01975	0.000000000000000E+000	7.24714e-05	3.98153	185739
1	1	0	0	0	0	0	14	50764.4	0.01975	3.69916	0.0197526	0.00389761	0.278539	0.000957323	0.278539	0	-0.312449	0.000957323	0.000000000000000E+000	0.000000000000000E+000	0.000000000000000E+000	-5.92511e-06	0.000000000000000E+000	0.278539	0.278539	0.0000000E+000	0.0000000E+000	0.01975	0.000000000000000E+000	7.3068e-05	4.01161	187274
1	1	0	0	0	0	0	14	52852.8	0.01975	3.72908	0.0197532	0.00374216	0.289998	0.00099988	0.289998	0	-0.312583	0.00099988	0.000000000000000E+000	0.000000000000000E+000	0.000000000000000E+000	-6.16887e-06	0.000000000000000E+000	0.289998	0.289998	0.0000000E+000	0.0000000E+000	0.01975	0.000000000000000E+000	7.36612e-05	4.04166	188784
1	1	0	0	0	0	0	14	54840.8	0.01975	3.75917	0.0197517	0.00354528	0.300905	0.00104071	0.300905	0	-0.312545	0.00104071	0.000000000000000E+000	0.000000000000000E+000	0.000000000000000E+000	-6.4009e-06	0.000000000000000E+000	0.300905	0.300905	0.0000000E+000	0.0000000E+000	0.01975	0.000000000000000E+000	7.42501e-05	4.07171	190321
1	1	0	0	0	0	0	14	56718.7	0.01975	3.78932	0.019753	0.00340612	0.311208	0.0010796	0.311208	0	-0.312488	0.0010796	0.000000000000000E+000	0.000000000000000E+000	0.000000000000000E+000	-6.62007e-06	0.000000000000000E+000	0.311208	0.311208	0.0000000E+000	0.0000000E+000	0.01975	0.000000000000000E+000	7.48504e-05	4.1018	191835
1	1	0	0	0	0	0	14	58559.8	0.01975	3.81945	0.0197522	0.00337825	0.32131	0.00111803	0.32131	0	-0.31243	0.00111803	0.000000000000000E+000	0.000000000000000E+000	0.000000000000000E+000	-6.83496e-06	0.000000000000000E+000	0.32131	0.32131	0.0000000E+000	0.0000000E+000	0.01975	0.000000000000000E+000	7.54424e-05	4.13188	193368
1	1	0	0	0	0	0	14	60496.3	0.01975	3.84956	0.0197527	0.0036671	0.331935	0.00115877	0.331935	0	-0.312373	0.00115877	0.000000000000000E+000	0.000000000000000E+000	0.000000000000000E+000	-7.06098e-06	0.000000000000000E+000	0.331935	0.331935	0.0000000E+000	0.0000000E+000	0.01975	0.000000000000000E+000	7.60391e-05	4.16193	194888
1	1	0	0	0	0	0	14	62789.9	0.01975	3.87967	0.0197527	0.00468256	0.34452	0.00120741	0.34452	0	-0.312335	0.00120741	0.000000000000000E+000	0.000000000000000E+000	0.000000000000000E+000	-7.32868e-06	0.000000000000000E+000	0.34452	0.34452	0.0000000E+000	0.0000000E+000	0.01975	0.000000000000000E+000	7.66338e-05	4.192	196412
1	0	0	1	1	0	1	14	63633.2	-0.01975	3.88725	-0.0192326	1.12633e-09	0.349147	0.00122538	0.349147	0	-0.310898	0.00122538	0.000000000000000E+000	0.000000000000000E+000	0.000000000000000E+000	-7.4271e-06	0.000000000000000E+000	0.349147	0.349147	0.0000000E+000	0.0000000E+000	-0.01975	0.000000000000000E+000	-7.47619e-05	4.19815	202118
1	0	0	1	0	0	1	14	64615	-0.01975	3.85779	-0.0197504	-0.00235045	0.343761	0.00124622	-0.0053863	1	-0.310312	0.00122538	2.08414e-05	0.000000000000000E+000	0.000000000000000E+000	-7.31253e-06	0.0053863	0.000000000000000E+000	0.0053863	0.0000000E+000	0.0000000E+000	-0.01975	0.000000000000000E+000	-7.61929e-05	4.1681	195327
1	0	0	1	0	0	1	14	65793.1	-0.01975	3.8277	-0.0197503	-0.0020919	0.337297	0.00127106	-0.0118496	1	-0.310331	0.00122538	4.56813e-05	0.000000000000000E+000	0.000000000000000E+000	-7.17504e-06	0.0118496	0.000000000000000E+000	0.0118496	0.0000000E+000	0.0000000E+000	-0.01975	0.000000000000000E+000	-7.55984e-05	4.13803	193804
1	0	0	1	0	0	1	14	66923.8	-0.01975	3.79761	-0.0197511	-0.0020724	0.331094	0.00129472	-0.0180532	1	-0.310255	0.00122538	6.93346e-05	0.000000000000000E+000	0.000000000000000E+000	-7.04307e-06	0.0180532	0.000000000000000E+000	0.0180532	0.0000000E+000	0.0000000E+000	-0.01975	0.000000000000000E+000	-7.5007e-05	4.10786	192273
1	0	0	1	0	0	1	14	68082.3	-0.01975	3.76767	-0.0197504	-0.00216189	0.324738	0.00131876	-0.0244088	1	-0.310122	0.00122538	9.33761e-05	0.000000000000000E+000	0.000000000000000E+000	-6.90788e-06	0.0244088	0.000000000000000E+000	0.0244088	0.0000000E+000	0.0000000E+000	-0.01975	0.000000000000000E+000	-7.4413e-05	4.07779	190764
1	0	0	1	0	0	1	14	69355.5	-0.01975	3.73754	-0.0197512	-0.00240987	0.317752	0.00134497	-0.0313944	1	-0.31016	0.00122538	0.00011959	0.000000000000000E+000	0.000000000000000E+000	-6.75928e-06	0.0313944	0.000000000000000E+000	0.0313944	0.0000000E+000	0.0000000E+000	-0.01975	0.000000000000000E+000	-7.3821e-05	4.0477	189231
1	0	0	1	0	0	1	14	70781.8	-0.01975	3.70745	-0.0197512	-0.00269183	0.309927	0.0013741	-0.0392195	1	-0.31016	0.00122538	0.000148718	0.000000000000000E+000	0.000000000000000E+000	-6.59282e-06	0.0392195	0.000000000000000E+000	0.0392195	0.0000000E+000	0.0000000E+000	-0.01975	0.000000000000000E+000	-7.32267e-05	4.01761	187707
1	0	0	1	0	0	1	14	72312.5	-0.01975	3.67736	-0.0197509	-0.00283426	0.30153	0.00140511	-0.0476172	1	-0.310179	0.00122538	0.000179727	0.000000000000000E+000	0.000000000000000E+000	-6.41418e-06	0.0476172	0.000000000000000E+000	0.0476172	0.0000000E+000	0.0000000E+000	-0.01975	0.000000000000000E+000	-7.26309e-05	3.98753	186187
1	0	0	1	0	0	1	14	73858.1	-0.01975	3.64736	-0.0197504	-0.00280541	0.29305	0.00143617	-0.0560966	1	-0.310103	0.00122538	0.000210784	0.000000000000000E+000	0.000000000000000E+000	-6.23381e-06	0.0560966	0.000000000000000E+000	0.0560966	0.0000000E+000	0.0000000E+000	-0.01975	0.000000000000000E+000	-7.20369e-05	3.95746	184673
1	0	0	1	0	0	1	14	75343.8	-0.01975	3.6174	-0.0197507	-0.00267386	0.284899	0.00146578	-0.0642478	1	-0.309969	0.00122538	0.000240394	0.000000000000000E+000	0.000000000000000E+000	-6.06042e-06	0.0642478	0.000000000000000E+000	0.0642478	0.0000000E+000	0.0000000E+000	-0.01975	0.000000000000000E+000	-7.14463e-05	3.92737	183153
1	0	0	1	0	0	1	14	76787.7	-0.01975	3.58725	-0.0197496	-0.00263097	0.276978	0.00149431	-0.0721692	1	-0.310064	0.00122538	0.000268932	0.000000000000000E+000	0.000000000000000E+000	-5.89191e-06	0.0721692	0.000000000000000E+000	0.0721692	0.0000000E+000	0.0000000E+000	-0.01975	0.000000000000000E+000	-7.0847e-05	3.89732	181636
1	0	0	1	0	0	1	14	78251.9	-0.01975	3.55724	-0.0197495	-0.00273713	0.268945	0.00152301	-0.080202	1	-0.309969	0.00122538	0.000297628	0.000000000000000E+000	0.000000000000000E+000	-5.72104e-06	0.080202	0.000000000000000E+000	0.080202	0.0000000E+000	0.0000000E+000	-0.01975	0.000000000000000E+000	-7.02537e-05	3.86721	180118
1	0	0	1	0	0	1	14	79831.2	-0.01975	3.52724	-0.0197501	-0.00300703	0.260281	0.0015537	-0.0888662	1	-0.309912	0.00122538	0.000328317	0.000000000000000E+000	0.000000000000000E+000	-5.53673e-06	0.0888662	0.000000000000000E+000	0.0888662	0.0000000E+000	0.0000000E+000	-0.01975	0.000000000000000E+000	-6.96634e-05	3.83715	178594
1	0	0	1	0	0	1	14	81728.1	-0.01975	3.49721	-0.0197498	-0.00376509	0.249874	0.00159024	-0.0992728	1	-0.309893	0.00122538	0.000364863	0.000000000000000E+000	0.000000000000000E+000	-5.31536e-06	0.0992728	0.000000000000000E+000	0.0992728	0.0000000E+000	0.0000000E+000	-0.01975	0.000000000000000E+000	-6.90693e-05	3.8071	177075
1	0	0	1	0	0	1	14	84262.6	-0.01975	3.46715	-0.0197502	-0.00514295	0.23597	0.00163865	-0.113177	1	-0.309874	0.00122538	0.000413272	0.000000000000000E+000	0.000000000000000E+000	-5.01958e-06	0.113177	0.000000000000000E+000	0.113177	0.0000000E+000	0.0000000E+000	-0.01975	0.000000000000000E+000	-6.84771e-05	3.77703	175550
1	0	0	1	0	0	1	14	87643.3	-0.01975	3.43744	-0.0197494	-0.00658332	0.217423	0.00170267	-0.131724	1	-0.310064	0.00122538	0.000477292	0.000000000000000E+000	0.000000000000000E+000	-4.62505e-06	0.131724	0.000000000000000E+000	0.131724	0.0000000E+000	0.0000000E+000	-0.01975	0.000000000000000E+000	-6.78874e-05	3.74751	174053
1	0	0	1	0	0	1	14	91145.4	-0.01975	3.40821	-0.0197509	-0.00619915	0.198209	0.00176844	-0.150937	1	-0.309855	0.00122538	0.00054306	0.000000000000000E+000	0.000000000000000E+000	-4.21634e-06	0.150937	0.000000000000000E+000	0.150937	0.0000000E+000	0.0000000E+000	-0.01975	0.000000000000000E+000	-6.73151e-05	3.71807	172560
1	0	0	1	0	0	1	14	94264.4	-0.01975	3.37816	-0.0197502	-0.00529539	0.181098	0.00182651	-0.168048	1	-0.309855	0.00122538	0.000601133	0.000000000000000E+000	0.000000000000000E+000	-3.85235e-06	0.168048	0.000000000000000E+000	0.168048	0.0000000E+000	0.0000000E+000	-0.01975	0.000000000000000E+000	-6.67194e-05	3.68801	171044
1	0	0	1	0	0	1	14	96805.3	-0.01975	3.34807	-0.0197506	-0.00435132	0.167159	0.00187341	-0.181988	1	-0.309893	0.00122538	0.000648024	0.000000000000000E+000	0.000000000000000E+000	-3.55582e-06	0.181988	0.000000000000000E+000	0.181988	0.0000000E+000	0.0000000E+000	-0.01975	0.000000000000000E+000	-6.61263e-05	3.65796	169517
1	0	0	1	0	0	1	14	98994.8	-0.01975	3.31798	-0.0197503	-0.00381631	0.155146	0.00191345	-0.194001	1	-0.309874	0.00122538	0.000688069	0.000000000000000E+000	0.000000000000000E+000	-3.30029e-06	0.194001	0.000000000000000E+000	0.194001	0.0000000E+000	0.0000000E+000	-0.01975	0.000000000000000E+000	-6.55312e-05	3.62785	167996
1	0	0	1	0	0	1	14	100837	-0.01975	3.288	-0.0197494	-0.00306821	0.145041	0.00194683	-0.204106	1	-0.30974	0.00122538	0.000721454	0.000000000000000E+000	0.000000000000000E+000	-3.08534e-06	0.204106	0.000000000000000E+000	0.204106	0.0000000E+000	0.0000000E+000	-0.01975	0.000000000000000E+000	-6.4936e-05	3.59774	166486
1	0	0	1	0	0	1	14	102166	-0.01975	3.25791	-0.0197499	-0.00210528	0.137747	0.00197072	-0.2114	1	-0.309759	0.00122538	0.000745336	0.000000000000000E+000	0.000000000000000E+000	-2.93017e-06	0.2114	0.000000000000000E+000	0.2114	0.0000000E+000	0.0000000E+000	-0.01975	0.000000000000000E+000	-6.43433e-05	3.56767	164958
1	0	0	1	0	0	1	14	103036	-0.01975	3.22782	-0.0197504	-0.00135633	0.132977	0.00198619	-0.21617	1	-0.309778	0.00122538	0.000760812	0.000000000000000E+000	0.000000000000000E+000	-2.8287e-06	0.21617	0.000000000000000E+000	0.21617	0.0000000E+000	0.0000000E+000	-0.01975	0.000000000000000E+000	-6.37507e-05	3.53759	163430
1	0	0	1	0	0	1	14	103620	-0.01975	3.19771	-0.0197493	-0.000942368	0.12977	0.0019965	-0.219377	1	-0.309797	0.00122538	0.000771117	0.000000000000000E+000	0.000000000000000E+000	-2.76049e-06	0.219377	0.000000000000000E+000	0.219377	0.0000000E+000	0.0000000E+000	-0.01975	0.000000000000000E+000	-6.31525e-05	3.5075	161915
1	0	0	1	0	0	1	14	104057	-0.01975	3.16767	-0.0197501	-0.00074026	0.127373	0.00200413	-0.221774	1	-0.30974	0.00122538	0.000778749	0.000000000000000E+000	0.000000000000000E+000	-2.70949e-06	0.221774	0.000000000000000E+000	0.221774	0.0000000E+000	0.0000000E+000	-0.01975	0.000000000000000E+000	-6.25618e-05	3.47741	160388
1	0	0	1	0	0	1	14	104411	-0.01975	3.13758	-0.0197503	-0.00060878	0.12543	0.00201026	-0.223717	1	-0.309721	0.00122538	0.000784875	0.000000000000000E+000	0.000000000000000E+000	-2.66817e-06	0.223717	0.000000000000000E+000	0.223717	0.0000000E+000	0.0000000E+000	-0.01975	0.000000000000000E+000	-6.19681e-05	3.4473	158863
1	0	0	1	0	0	1	14	104707	-0.01975	3.10753	-0.01975	-0.000510018	0.123806	0.00201533	-0.225341	1	-0.309702	0.00122538	0.000789946	0.000000000000000E+000	0.000000000000000E+000	-2.63362e-06	0.225341	0.000000000000000E+000	0.225341	0.0000000E+000	0.0000000E+000	-0.01975	0.000000000000000E+000	-6.13737e-05	3.41723	157343
1	0	0	1	0	0	1	14	104952	-0.01975	3.0774	-0.0197502	-0.00041999	0.122463	0.00201948	-0.226684	1	-0.309683	0.00122538	0.0007941	0.000000000000000E+000	0.000000000000000E+000	-2.60506e-06	0.226684	0.000000000000000E+000	0.226684	0.0000000E+000	0.0000000E+000	-0.01975	0.000000000000000E+000	-6.0779e-05	3.38708	155816
1	0	0	1	0	0	1	14	105155	-0.01975	3.04721	-0.0197502	-0.000349405	0.121352	0.00202289	-0.227795	1	-0.309759	0.00122538	0.000797505	0.000000000000000E+000	0.000000000000000E+000	-2.58141e-06	0.227795	0.000000000000000E+000	0.227795	0.0000000E+000	0.0000000E+000	-0.01975	0.000000000000000E+000	-6.01829e-05	3.35697	154288
1	0	0	1	0	0	1	14	105324	-0.01975	3.01712	-0.0197497	-0.000291864	0.120424	0.0020257	-0.228723	1	-0.309797	0.00122538	0.000800319	0.000000000000000E+000	0.000000000000000E+000	-2.56167e-06	0.228723	0.000000000000000E+000	0.228723	0.0000000E+000	0.0000000E+000	-0.01975	0.000000000000000E+000	-5.95872e-05	3.32692	152768
1	0	0	1	0	0	1	14	105467	-0.01975	2.98714	-0.0197499	-0.000249121	0.119638	0.00202806	-0.229508	1	-0.309568	0.00122538	0.000802677	0.000000000000000E+000	0.000000000000000E+000	-2.54497e-06	0.229508	0.000000000000000E+000	0.229508	0.0000000E+000	0.0000000E+000	-0.01975	0.000000000000000E+000	-5.89957e-05	3.29671	151248
1	0	0	1	0	0	1	14	105592	-0.01975	2.95695	-0.0197496	-0.000219223	0.118954	0.00203009	-0.230192	1	-0.309606	0.00122538	0.000804711	0.000000000000000E+000	0.000000000000000E+000	-2.53042e-06	0.230192	0.000000000000000E+000	0.230192	0.0000000E+000	0.0000000E+000	-0.01975	0.000000000000000E+000	-5.83988e-05	3.26656	149722
1	0	0	1	0	0	1	14	105701	-0.01975	2.9269	-0.0197491	-0.000192859	0.118355	0.00203186	-0.230792	1	-0.309587	0.00122538	0.000806475	0.000000000000000E+000	0.000000000000000E+000	-2.51766e-06	0.230792	0.000000000000000E+000	0.230792	0.0000000E+000	0.0000000E+000	-0.01975	0.000000000000000E+000	-5.78036e-05	3.23649	148204
1	0	0	1	0	0	1	14	105799	-0.01975	2.89687	-0.0197503	-0.000172839	0.11782	0.00203341	-0.231327	1	-0.309511	0.00122538	0.000808033	0.000000000000000E+000	0.000000000000000E+000	-2.50628e-06	0.231327	0.000000000000000E+000	0.231327	0.0000000E+000	0.0000000E+000	-0.01975	0.000000000000000E+000	-5.72139e-05	3.20638	146675
1	0	0	1	0	0	1	14	105888	-0.01975	2.86678	-0.0197504	-0.000156302	0.11733	0.00203483	-0.231817	1	-0.309435	0.00122538	0.000809446	0.000000000000000E+000	0.000000000000000E+000	-2.49585e-06	0.231817	0.000000000000000E+000	0.231817	0.0000000E+000	0.0000000E+000	-0.01975	0.000000000000000E+000	-5.662e-05	3.17621	145150
1	0	0	1	0	0	1	14	105971	-0.01975	2.83655	-0.0197498	-0.000149527	0.116874	0.00203613	-0.232273	1	-0.309454	0.00122538	0.000810744	0.000000000000000E+000	0.000000000000000E+000	-2.48617e-06	0.232273	0.000000000000000E+000	0.232273	0.0000000E+000	0.0000000E+000	-0.01975	0.000000000000000E+000	-5.60212e-05	3.146	143624
1	0	0	1	0	0	1	14	106049	-0.01975	2.80625	-0.0197499	-0.000139739	0.116448	0.00203733	-0.232699	1	-0.309645	0.00122538	0.000811948	0.000000000000000E+000	0.000000000000000E+000	-2.4771e-06	0.232699	0.000000000000000E+000	0.232699	0.0000000E+000	0.0000000E+000	-0.01975	0.000000000000000E+000	-5.54231e-05	3.11589	142089
1	0	0	1	0	0	1	14	106122	-0.01975	2.77618	-0.0197501	-0.00013262	0.116045	0.00203845	-0.233102	1	-0.309492	0.00122538	0.000813073	0.000000000000000E+000	0.000000000000000E+000	-2.46852e-06	0.233102	0.000000000000000E+000	0.233102	0.0000000E+000	0.0000000E+000	-0.01975	0.000000000000000E+000	-5.48297e-05	3.08567	140565
1	0	0	1	0	0	1	14	106192	-0.01975	2.74605	-0.0197494	-0.000125814	0.11566	0.00203952	-0.233487	1	-0.309511	0.00122538	0.000814137	0.000000000000000E+000	0.000000000000000E+000	-2.46033e-06	0.233487	0.000000000000000E+000	0.233487	0.0000000E+000	0.0000000E+000	-0.01975	0.000000000000000E+000	-5.42327e-05	3.05556	139045
1	0	0	1	0	0	1	14	106260	-0.01975	2.7159	-0.0197498	-0.000124171	0.115287	0.00204054	-0.23386	1	-0.30953	0.00122538	0.000815155	0.000000000000000E+000	0.000000000000000E+000	-2.45239e-06	0.23386	0.000000000000000E+000	0.23386	0.0000000E+000	0.0000000E+000	-0.01975	0.000000000000000E+000	-5.36385e-05	3.02543	137515
1	0	0	1	0	0	1	14	106317	-0.01975	2.69044	-0.0197495	-6.58996e-05	0.114975	0.00204138	-0.234172	1	-0.309626	0.00122538	0.000815998	0.000000000000000E+000	0.000000000000000E+000	-2.44577e-06	0.234172	0.000000000000000E+000	0.234172	0.0000000E+000	0.0000000E+000	-0.01975	0.000000000000000E+000	-5.31348e-05	3.00007	136229
1	1	0	0	0	0	2	14	106317	0.01975	2.70005	0.0197538	6.05802e-07	0.114976	0.00204138	6.05802e-07	2	-0.310675	1.63313e-09	0.000000000000000E+000	0.000000000000000E+000	0.000000000000000E+000	-2.44578e-06	0.000000000000000E+000	6.05802e-07	6.05802e-07	0.0000000E+000	0.0000000E+000	0.01975	1	5.33362e-05	3.01073	136685
1	1	0	0	0	0	2	14	106318	0.01975	2.73028	0.0197539	9.95399e-07	0.114978	0.00204139	3.39556e-06	2	-0.310618	9.20911e-09	0.000000000000000E+000	0.000000000000000E+000	0.000000000000000E+000	-2.44584e-06	0.000000000000000E+000	3.39556e-06	3.39556e-06	0.0000000E+000	0.0000000E+000	0.01975	1	5.39336e-05	3.04089	138215
1	1	0	0	0	0	2	14	106318	0.01975	2.76031	0.0197548	1.16002e-06	0.114982	0.0020414	6.71539e-06	2	-0.310828	1.83238e-08	0.000000000000000E+000	0.000000000000000E+000	0.000000000000000E+000	-2.44591e-06	0.000000000000000E+000	6.71539e-06	6.71539e-06	0.0000000E+000	0.0000000E+000	0.01975	1	5.45293e-05	3.07114	139729
1	1	0	0	0	0	2	14	106319	0.01975	2.79054	0.0197544	1.31147e-06	0.114986	0.00204141	1.0483e-05	2	-0.31077	2.87814e-08	0.000000000000000E+000	0.000000000000000E+000	0.000000000000000E+000	-2.44599e-06	0.000000000000000E+000	1.0483e-05	1.0483e-05	0.0000000E+000	0.0000000E+000	0.01975	1	5.51254e-05	3.10131	141261
1	1	0	0	0	0	2	14	106320	0.01975	2.82078	0.0197541	1.45963e-06	0.11499	0.00204142	1.4683e-05	2	-0.310885	4.0566e-08	0.000000000000000E+000	0.000000000000000E+000	0.000000000000000E+000	-2.44608e-06	0.000000000000000E+000	1.4683e-05	1.4683e-05	0.0000000E+000	0.0000000E+000	0.01975	1	5.57221e-05	3.13166	142794
1	1	0	0	0	0	2	14	106321	0.01975	2.85097	0.0197547	1.5979e-06	0.114994	0.00204143	1.93263e-05	2	-0.310942	5.37345e-08	0.000000000000000E+000	0.000000000000000E+000	0.000000000000000E+000	-2.44618e-06	0.000000000000000E+000	1.93263e-05	1.93263e-05	0.0000000E+000	0.0000000E+000	0.01975	1	5.63199e-05	3.16191	144319
1	1	0	0	0	0	2	14	106322	0.01975	2.88121	0.0197542	1.73948e-06	0.114999	0.00204145	2.44723e-05	2	-0.310942	6.84837e-08	0.000000000000000E+000	0.000000000000000E+000	0.000000000000000E+000	-2.44629e-06	0.000000000000000E+000	2.44723e-05	2.44723e-05	0.0000000E+000	0.0000000E+000	0.01975	1	5.6916e-05	3.19215	145853
1	1	0	0	0	0	2	14	106323	0.01975	2.91147	0.0197542	1.93701e-06	0.115005	0.00204146	3.01682e-05	2	-0.310961	8.49811e-08	0.000000000000000E+000	0.000000000000000E+000	0.000000000000000E+000	-2.44641e-06	0.000000000000000E+000	3.01682e-05	3.01682e-05	0.0000000E+000	0.0000000E+000	0.01975	1	5.75139e-05	3.22243	147385
1	1	0	0	0	0	2	14	106324	0.01975	2.94157	0.0197539	2.14333e-06	0.115011	0.00204148	3.63556e-05	2	-0.310923	1.0309e-07	0.000000000000000E+000	0.000000000000000E+000	0.000000000000000E+000	-2.44654e-06	0.000000000000000E+000	3.63556e-05	3.63556e-05	0.0000000E+000	0.0000000E+000	0.01975	1	5.81074e-05	3.25249	148911
1	1	0	0	0	0	2	14	106325	0.01975	2.97166	0.019754	2.30905e-06	0.115018	0.0020415	4.30962e-05	2	-0.311037	1.2302e-07	0.000000000000000E+000	0.000000000000000E+000	0.000000000000000E+000	-2.44668e-06	0.000000000000000E+000	4.30962e-05	4.30962e-05	0.0000000E+000	0.0000000E+000	0.01975	1	5.8702e-05	3.28269	150434
1	1	0	0	0	0	2	14	106326	0.01975	3.00179	0.0197548	2.50989e-06	0.115026	0.00204152	5.05106e-05	2	-0.311095	1.45165e-07	0.000000000000000E+000	0.000000000000000E+000	0.000000000000000E+000	-2.44684e-06	0.000000000000000E+000	5.05106e-05	5.05106e-05	0.0000000E+000	0.0000000E+000	0.01975	1	5.92996e-05	3.31288	151952
1	1	0	0	0	0	2	14	106328	0.01975	3.03213	0.0197546	2.78644e-06	0.115034	0.00204155	5.86165e-05	2	-0.311076	1.69621e-07	0.000000000000000E+000	0.000000000000000E+000	0.000000000000000E+000	-2.44701e-06	0.000000000000000E+000	5.86165e-05	5.86165e-05	0.0000000E+000	0.0000000E+000	0.01975	1	5.98984e-05	3.3432	153490
1	1	0	0	0	0	2	14	106330	0.01975	3.06243	0.0197543	3.02898e-06	0.115043	0.00204158	6.74894e-05	2	-0.311076	1.96659e-07	0.000000000000000E+000	0.000000000000000E+000	0.000000000000000E+000	-2.4472e-06	0.000000000000000E+000	6.74894e-05	6.74894e-05	0.0000000E+000	0.0000000E+000	0.01975	1	6.04962e-05	3.3735	155026
1	1	0	0	0	0	2	14	106331	0.01975	3.0924	0.019755	3.32638e-06	0.115052	0.00204161	7.72359e-05	2	-0.311247	2.26654e-07	0.000000000000000E+000	0.000000000000000E+000	0.000000000000000E+000	-2.44741e-06	0.000000000000000E+000	7.72359e-05	7.72359e-05	0.0000000E+000	0.0000000E+000	0.01975	1	6.10904e-05	3.40365	156538
1	1	0	0	0	0	2	14	106333	0.01975	3.12259	0.0197551	3.77526e-06	0.115063	0.00204164	8.80821e-05	2	-0.311171	2.6036e-07	0.000000000000000E+000	0.000000000000000E+000	0.000000000000000E+000	-2.44764e-06	0.000000000000000E+000	8.80821e-05	8.80821e-05	0.0000000E+000	0.0000000E+000	0.01975	1	6.16871e-05	3.43376	158065
1	1	0	0	0	0	2	14	106336	0.01975	3.15257	0.0197537	4.31081e-06	0.115075	0.00204168	0.000100399	2	-0.311247	2.99009e-07	0.000000000000000E+000	0.000000000000000E+000	0.000000000000000E+000	-2.4479e-06	0.000000000000000E+000	0.000100399	0.000100399	0.0000000E+000	0.0000000E+000	0.01975	1	6.22749e-05	3.46382	159594
1	1	0	0	0	0	2	14	106338	0.01975	3.18279	0.019754	5.40058e-06	0.11509	0.00204173	0.000115309	2	-0.31119	3.46246e-07	0.000000000000000E+000	0.000000000000000E+000	0.000000000000000E+000	-2.44822e-06	0.000000000000000E+000	0.000115309	0.000115309	0.0000000E+000	0.0000000E+000	0.01975	1	6.28729e-05	3.49398	161121
1	1	0	0	0	0	2	14	106342	0.01975	3.21285	0.0197546	8.11351e-06	0.115111	0.00204179	0.000136083	2	-0.311209	4.12698e-07	0.000000000000000E+000	0.000000000000000E+000	0.000000000000000E+000	-2.44866e-06	0.000000000000000E+000	0.000136083	0.000136083	0.0000000E+000	0.0000000E+000	0.01975	1	6.34685e-05	3.52406	162638
1	1	0	0	0	0	2	14	106350	0.01975	3.24282	0.0197543	2.13433e-05	0.115156	0.00204194	0.000181379	2	-0.311285	5.59029e-07	0.000000000000000E+000	0.000000000000000E+000	0.000000000000000E+000	-2.44962e-06	0.000000000000000E+000	0.000181379	0.000181379	0.0000000E+000	0.0000000E+000	0.01975	1	6.40596e-05	3.55411	164158
1	1	0	0	0	0	2	14	106406	0.01975	3.27265	0.0197543	0.000182861	0.11546	0.00204293	0.000484519	2	-0.311514	1.54817e-06	0.000000000000000E+000	0.000000000000000E+000	0.000000000000000E+000	-2.45607e-06	0.000000000000000E+000	0.000484519	0.000484519	0.0000000E+000	0.0000000E+000	0.01975	1	6.46488e-05	3.58416	165668
1	1	0	0	0	0	2	14	107176	0.01975	3.30264	0.0197544	0.00273885	0.11969	0.00205686	0.00471511	2	-0.311629	1.54824e-05	0.000000000000000E+000	0.000000000000000E+000	0.000000000000000E+000	-2.54607e-06	0.000000000000000E+000	0.00471511	0.00471511	0.0000000E+000	0.0000000E+000	0.01975	1	6.52417e-05	3.61427	167185
1	1	0	0	0	0	2	14	110545	0.01975	3.33174	0.0197545	0.00638522	0.138172	0.00211818	0.0231967	2	-0.311724	7.67988e-05	0.000000000000000E+000	0.000000000000000E+000	0.000000000000000E+000	-2.93921e-06	0.000000000000000E+000	0.0231967	0.0231967	0.0000000E+000	0.0000000E+000	0.01975	1	6.58168e-05	3.64347	168658
1	1	0	0	0	0	2	14	113658	0.01975	3.36183	0.0197543	0.00530408	0.155254	0.00217534	0.0402792	2	-0.311743	0.000133957	0.000000000000000E+000	0.000000000000000E+000	0.000000000000000E+000	-3.30259e-06	0.000000000000000E+000	0.0402792	0.0402792	0.0000000E+000	0.0000000E+000	0.01975	1	6.64108e-05	3.67358	170182
1	1	0	0	0	0	2	14	116565	0.01975	3.39193	0.0197543	0.00546187	0.171205	0.0022292	0.0562303	2	-0.311801	0.000187821	0.000000000000000E+000	0.000000000000000E+000	0.000000000000000E+000	-3.64191e-06	0.000000000000000E+000	0.0562303	0.0562303	0.0000000E+000	0.0000000E+000	0.01975	1	6.70052e-05	3.70373	171705
1	1	0	0	0	0	2	14	119977	0.01975	3.42167	0.0197539	0.00658476	0.18993	0.002293	0.0749547	2	-0.31161	0.000251618	0.000000000000000E+000	0.000000000000000E+000	0.000000000000000E+000	-4.04021e-06	0.000000000000000E+000	0.0749547	0.0749547	0.0000000E+000	0.0000000E+000	0.01975	1	6.75914e-05	3.73328	173215
1	1	0	0	0	0	2	14	123577	0.01975	3.44944	0.0197547	0.00658479	0.209684	0.00236087	0.094709	2	-0.311743	0.000319486	0.000000000000000E+000	0.000000000000000E+000	0.000000000000000E+000	-4.46043e-06	0.000000000000000E+000	0.094709	0.094709	0.0000000E+000	0.0000000E+000	0.01975	1	6.81427e-05	3.76118	174613
1	1	0	0	0	0	2	14	126986	0.01975	3.47863	0.0197546	0.00597898	0.228393	0.00242566	0.113418	2	-0.311762	0.000384283	0.000000000000000E+000	0.000000000000000E+000	0.000000000000000E+000	-4.85842e-06	0.000000000000000E+000	0.113418	0.113418	0.0000000E+000	0.0000000E+000	0.01975	1	6.8719e-05	3.7904	176092
1	1	0	0	0	0	2	14	129627	0.01975	3.50863	0.0197539	0.00430653	0.242885	0.00247628	0.12791	2	-0.31182	0.000434897	0.000000000000000E+000	0.000000000000000E+000	0.000000000000000E+000	-5.16669e-06	0.000000000000000E+000	0.12791	0.12791	0.0000000E+000	0.0000000E+000	0.01975	1	6.93091e-05	3.82045	177617
1	1	0	0	0	0	2	14	131634	0.01975	3.53872	0.0197542	0.00342578	0.253898	0.00251507	0.138923	2	-0.31182	0.000473693	0.000000000000000E+000	0.000000000000000E+000	0.000000000000000E+000	-5.40095e-06	0.000000000000000E+000	0.138923	0.138923	0.0000000E+000	0.0000000E+000	0.01975	1	6.99046e-05	3.85054	179138
1	1	0	0	0	0	2	14	133359	0.01975	3.56883	0.019755	0.00307082	0.263363	0.0025487	0.148388	2	-0.31182	0.000507326	0.000000000000000E+000	0.000000000000000E+000	0.000000000000000E+000	-5.60229e-06	0.000000000000000E+000	0.148388	0.148388	0.0000000E+000	0.0000000E+000	0.01975	1	7.05021e-05	3.88065	180655
1	1	0	0	0	0	2	14	134990	0.01975	3.59896	0.0197548	0.00297906	0.272309	0.00258076	0.157334	2	-0.311782	0.000539385	0.000000000000000E+000	0.000000000000000E+000	0.000000000000000E+000	-5.79259e-06	0.000000000000000E+000	0.157334	0.157334	0.0000000E+000	0.0000000E+000	0.01975	1	7.10967e-05	3.91074	182182
1	1	0	0	0	0	2	14	136635	0.01975	3.62898	0.0197536	0.00304256	0.281339	0.0026134	0.166364	2	-0.31182	0.000572017	0.000000000000000E+000	0.000000000000000E+000	0.000000000000000E+000	-5.98468e-06	0.000000000000000E+000	0.166364	0.166364	0.0000000E+000	0.0000000E+000	0.01975	1	7.16855e-05	3.9408	183712
1	1	0	0	0	0	2	14	138354	0.01975	3.65891	0.0197531	0.00319012	0.290769	0.00264776	0.175794	2	-0.311953	0.000606381	0.000000000000000E+000	0.000000000000000E+000	0.000000000000000E+000	-6.18528e-06	0.000000000000000E+000	0.175794	0.175794	0.0000000E+000	0.0000000E+000	0.01975	1	7.2275e-05	3.97087	185232
1	1	0	0	0	0	2	14	140173	0.01975	3.68912	0.0197535	0.00335096	0.300754	0.00268444	0.185779	2	-0.311858	0.000643064	0.000000000000000E+000	0.000000000000000E+000	0.000000000000000E+000	-6.39768e-06	0.000000000000000E+000	0.185779	0.185779	0.0000000E+000	0.0000000E+000	0.01975	1	7.28731e-05	4.00098	186758
1	1	0	0	0	0	2	14	142002	0.01975	3.71923	0.0197541	0.00335687	0.31079	0.00272162	0.195815	2	-0.311877	0.000680237	0.000000000000000E+000	0.000000000000000E+000	0.000000000000000E+000	-6.61118e-06	0.000000000000000E+000	0.195815	0.195815	0.0000000E+000	0.0000000E+000	0.01975	1	7.347e-05	4.03111	188277
1	1	0	0	0	0	2	14	143741	0.01975	3.74934	0.0197536	0.00311375	0.320331	0.00275724	0.205356	2	-0.311934	0.000715859	0.000000000000000E+000	0.000000000000000E+000	0.000000000000000E+000	-6.81412e-06	0.000000000000000E+000	0.205356	0.205356	0.0000000E+000	0.0000000E+000	0.01975	1	7.40629e-05	4.06128	189806
1	1	0	0	0	0	2	14	145362	0.01975	3.77938	0.0197536	0.00291193	0.329223	0.00279071	0.214248	2	-0.311953	0.000749332	0.000000000000000E+000	0.000000000000000E+000	0.000000000000000E+000	-7.00329e-06	0.000000000000000E+000	0.214248	0.214248	0.0000000E+000	0.0000000E+000	0.01975	1	7.46564e-05	4.09133	191326
1	1	0	0	0	0	2	14	146925	0.01975	3.8096	0.0197541	0.00287715	0.337802	0.00282326	0.222827	2	-0.311896	0.000781883	0.000000000000000E+000	0.000000000000000E+000	0.000000000000000E+000	-7.18578e-06	0.000000000000000E+000	0.222827	0.222827	0.0000000E+000	0.0000000E+000	0.01975	1	7.52552e-05	4.1215	192851
1	1	0	0	0	0	2	14	148533	0.01975	3.83969	0.0197547	0.00302604	0.346623	0.002857	0.231648	2	-0.311915	0.000815619	0.000000000000000E+000	0.000000000000000E+000	0.000000000000000E+000	-7.37342e-06	0.000000000000000E+000	0.231648	0.231648	0.0000000E+000	0.0000000E+000	0.01975	1	7.58518e-05	4.15161	194369
1	1	0	0	0	0	2	14	150345	0.01975	3.86982	0.0197538	0.00354549	0.356568	0.00289534	0.241593	2	-0.311858	0.000853956	0.000000000000000E+000	0.000000000000000E+000	0.000000000000000E+000	-7.58496e-06	0.000000000000000E+000	0.241593	0.241593	0.0000000E+000	0.0000000E+000	0.01975	1	7.64435e-05	4.18168	195903
1	1	0	0	0	0	2	14	151842	0.01975	3.88824	0.0197544	1.09747e-09	0.364783	0.00292721	0.249808	2	-0.31161	0.000885828	0.000000000000000E+000	0.000000000000000E+000	0.000000000000000E+000	-7.75972e-06	0.000000000000000E+000	0.249808	0.249808	0.0000000E+000	0.0000000E+000	0.01975	1	7.68098e-05	4.19985	196829
2	1	0	1	0	0	3	14	151902	3.88835	3.88885	0.0193989	0.000169099	0.365142	0.0029286	0.250167	2	-0.311743	0.000887223	0.000000000000000E+000	0.000000000000000E+000	0.000000000000000E+000	-7.76735e-06	0.000000000000000E+000	0.250167	0.250167	0.0000000E+000	3.88835	0.0000000E+000	1	7.54391e-05	4.20059	200468
2	1	0	1	0	0	3	14	151992	3.88835	3.88879	0.0153191	0.000132624	0.365571	0.00293027	0.250596	2	-0.31161	0.000888893	0.000000000000000E+000	0.000000000000000E+000	0.000000000000000E+000	-7.77649e-06	0.000000000000000E+000	0.250596	0.250596	0.0000000E+000	3.88835	0.0000000E+000	1	5.95726e-05	4.2004	253853
2	1	0	1	0	0	3	14	152082	3.88835	3.88888	0.0127243	0.000109905	0.365921	0.00293163	0.250946	2	-0.311324	0.000890251	0.000000000000000E+000	0.000000000000000E+000	0.000000000000000E+000	-7.78392e-06	0.000000000000000E+000	0.250946	0.250946	0.0000000E+000	3.88835	0.0000000E+000	1	4.94832e-05	4.20021	305628
2	1	0	1	0	0	3	14	152172	3.88835	3.8889	0.0109794	9.43169e-05	0.366218	0.00293278	0.251242	2	-0.311381	0.000891405	0.000000000000000E+000	0.000000000000000E+000	0.000000000000000E+000	-7.79023e-06	0.000000000000000E+000	0.251242	0.251242	0.0000000E+000	3.88835	0.0000000E+000	1	4.26979e-05	4.20028	354200
2	1	0	1	0	0	3	14	152262	3.88835	3.88875	0.00947173	8.13133e-05	0.366473	0.00293378	0.251498	2	-0.311457	0.0008924	0.000000000000000E+000	0.000000000000000E+000	0.000000000000000E+000	-7.79568e-06	0.000000000000000E+000	0.251498	0.251498	0.0000000E+000	3.88835	0.0000000E+000	1	3.68332e-05	4.20021	410564
2	1	0	1	0	0	3	14	152352	3.88835	3.88888	0.00858028	7.34267e-05	0.366702	0.00293467	0.251727	2	-0.311438	0.000893289	0.000000000000000E+000	0.000000000000000E+000	0.000000000000000E+000	-7.80054e-06	0.000000000000000E+000	0.251727	0.251727	0.0000000E+000	3.88835	0.0000000E+000	1	3.33677e-05	4.20032	453235
2	1	0	1	0	0	3	14	152442	3.88835	3.88881	0.00783713	6.64943e-05	0.366908	0.00293547	0.251933	2	-0.311266	0.00089409	0.000000000000000E+000	0.000000000000000E+000	0.000000000000000E+000	-7.80492e-06	0.000000000000000E+000	0.251933	0.251933	0.0000000E+000	3.88835	0.0000000E+000	1	3.04771e-05	4.20007	496203
2	1	0	1	0	0	3	14	152532	3.88835	3.88894	0.00756492	6.27427e-05	0.367098	0.00293621	0.252123	2	-0.311305	0.000894831	0.000000000000000E+000	0.000000000000000E+000	0.000000000000000E+000	-7.80897e-06	0.000000000000000E+000	0.252123	0.252123	0.0000000E+000	3.88835	0.0000000E+000	1	2.94195e-05	4.20025	514076
2	1	0	1	0	0	3	14	152622	3.88835	3.88883	0.00701165	5.83082e-05	0.367278	0.00293691	0.252303	2	-0.311152	0.000895529	0.000000000000000E+000	0.000000000000000E+000	0.000000000000000E+000	-7.81279e-06	0.000000000000000E+000	0.252303	0.252303	0.0000000E+000	3.88835	0.0000000E+000	1	2.72671e-05	4.19998	554623
2	1	0	1	0	0	3	14	152712	3.88835	3.88881	0.00653403	5.44094e-05	0.367444	0.00293755	0.252469	2	-0.311285	0.000896175	0.000000000000000E+000	0.000000000000000E+000	0.000000000000000E+000	-7.81632e-06	0.000000000000000E+000	0.252469	0.252469	0.0000000E+000	3.88835	0.0000000E+000	1	2.54096e-05	4.20009	595162
2	1	0	1	0	0	3	14	152742	3.88835	3.88888	0.00638962	5.40894e-05	0.367498	0.00293776	0.252523	2	-0.311266	0.000896385	0.000000000000000E+000	0.000000000000000E+000	0.000000000000000E+000	-7.81747e-06	0.000000000000000E+000	0.252523	0.252523	0.0000000E+000	3.88835	0.0000000E+000	1	2.48485e-05	4.20015	608625