File: Fresh Data/269/269_230530_C12.mpt
EC-Lab ASCII FILE
Nb header lines : 95

Modulo Bat

Run on channel : 12 (SN 55085)
User :
CE vs. WE compliance from -10 V to 10 V
Electrode connection : standard
Potential control : Ewe
Ewe ctrl range : min = -10.00 V, max = 10.00 V
Safety Limits :
	Do not start on E overload
Acquisition started on : 05/30/2023 14:13:48.985
Technique started on : 05/30/2023 14:13:48.985
Loaded Setting File :  C:\Users\OEMS\Documents\EC-Lab\Data\Mitch\Protocols\AMIDR Form.mps
Saved on :
	File : 269_230530_C12.mpr
	Directory : C:\Users\OEMS\Documents\EC-Lab\Data\Mitch\Results\Formation\
	Host : 192.168.1.58
Device : VMP-3e (SN .003109)
Address : USB
EC-Lab for windows v11.43 (software)
Internet server v11.40 (firmware)
Command interpretor v11.40 (firmware)
Electrode material :
Initial state :
Electrolyte :
Comments :
Mass of active material : 2.367 mg
 at x = 0.000
Molecular weight of active material (at x = 0) : 0.001 g/mol
Atomic weight of intercalated ion : 0.001 g/mol
Acquisition started at : xo = 0.000
Number of e- transfered per intercalated ion : 1
for DX = 1, DQ = 63439.150 mA.h
Battery capacity : 0.533 mA.h
Electrode surface area : 0.001 cm²
Characteristic mass : 0.001 g
Volume (V) : 0.001 cm³
Record Ece
Cycle Definition : Charge/Discharge alternance
Ns                  0                   1                   2                   3
ctrl_type           CC                  CC                  CC                  CV
Apply I/C           C / N               C / N               C / N               C / N
current/potential   current             current             current             current
ctrl1_val           60.000              60.000              60.000              0.000
ctrl1_val_unit      µA                  µA                  µA                  V
ctrl1_val_vs        <None>              <None>              <None>              Emeas
ctrl2_val
ctrl2_val_unit
ctrl2_val_vs
ctrl3_val
ctrl3_val_unit
ctrl3_val_vs
N                   20.00               20.00               20.00               20.00
charge/discharge    Charge              Discharge           Charge              Charge
charge/discharge_1  Charge              Charge              Charge              Charge
Apply I/C_1         I                   I                   I                   I
N1                  0.00                0.00                0.00                0.00
ctrl4_val
ctrl4_val_unit
ctrl_seq            0                   0                   0                   0
ctrl_repeat         0                   0                   0                   0
ctrl_trigger        Falling Edge        Falling Edge        Falling Edge        Falling Edge
ctrl_TO_t           0.000               0.000               0.000               0.000
ctrl_TO_t_unit      d                   d                   d                   d
ctrl_Nd             6                   6                   6                   6
ctrl_Na             2                   2                   2                   2
ctrl_corr           0                   0                   0                   0
lim_nb              1                   1                   1                   1
lim1_type           Ewe-Ece             Ewe-Ece             Ewe-Ece             Time
lim1_comp           >                   <                   >                   >
lim1_Q              Q limit             Q limit             Q limit             Q limit
lim1_value          4.200               3.000               4.200               15.000
lim1_value_unit     V                   V                   V                   mn
lim1_action         Next sequence       Next sequence       Next sequence       Next sequence
lim1_seq            1                   2                   3                   4
rec_nb              2                   2                   2                   1
rec1_type           Time                Time                Time                Time
rec1_value          20.000              20.000              20.000              30.000
rec1_value_unit     mn                  mn                  mn                  s
rec2_type           Ewe-Ece             Ewe-Ece             Ewe-Ece             Ewe-Ece
rec2_value          0.010               0.010               0.010               0.010
rec2_value_unit     V                   V                   V                   V
E range min (V)     -10.000             -10.000             -10.000             -10.000
E range max (V)     10.000              10.000              10.000              10.000
I Range             100 µA              100 µA              100 µA              100 µA
I Range min         Unset               Unset               Unset               Unset
I Range max         Unset               Unset               Unset               Unset
I Range init        Unset               Unset               Unset               Unset
auto rest           0                   0                   0                   0
Bandwidth           5                   5                   5                   5

mode	ox/red	error	control changes	Ns changes	counter inc.	Ns	I Range	time/s	control/V/mA	Ewe/V	I/mA	dq/mA.h	(Q-Qo)/mA.h	|Energy|/W.h	Q charge/discharge/mA.h	half cycle	Ece/V	Energy charge/W.h	Energy discharge/W.h	Capacitance charge/µF	Capacitance discharge/µF	x	Q discharge/mA.h	Q charge/mA.h	Capacity/mA.h	Efficiency/%	control/V	control/mA	cycle number	P/W	Ewe-Ece/V	R/Ohm
1	1	0	0	0	0	0	13	0.000000000000000E+000	0.02665	2.64943	0.0264809	0.000000000000000E+000	0.000000000000000E+000	0.000000000000000E+000	0.000000000000000E+000	0	-0.316659	0.000000000000000E+000	0.000000000000000E+000	0.000000000000000E+000	0.000000000000000E+000	0.000000000000000E+000	0.000000000000000E+000	0.000000000000000E+000	0.000000000000000E+000	0.0000000E+000	0.0000000E+000	0.02665	0.000000000000000E+000	7.01591e-05	2.96608	100050
1	1	0	0	0	0	0	13	0.7004	0.02665	2.67584	0.0266234	2.13291e-06	5.17993e-06	1.37944e-08	5.17993e-06	0	-0.320395	1.37944e-08	0.000000000000000E+000	0.000000000000000E+000	0.000000000000000E+000	-8.16519e-11	0.000000000000000E+000	5.17993e-06	5.17993e-06	0.0000000E+000	0.0000000E+000	0.02665	0.000000000000000E+000	7.12399e-05	2.99623	100507
1	1	0	0	0	0	0	13	1.6404	0.02665	2.70594	0.0266227	2.40505e-06	1.21318e-05	3.25022e-08	1.21318e-05	0	-0.320452	3.25022e-08	0.000000000000000E+000	0.000000000000000E+000	0.000000000000000E+000	-1.91236e-10	0.000000000000000E+000	1.21318e-05	1.21318e-05	0.0000000E+000	0.0000000E+000	0.02665	0.000000000000000E+000	7.20396e-05	3.02639	101640
1	1	0	0	0	0	0	13	2.6888	0.02665	2.73599	0.0266278	2.6934e-06	1.98853e-05	5.36002e-08	1.98853e-05	0	-0.320433	5.36002e-08	0.000000000000000E+000	0.000000000000000E+000	0.000000000000000E+000	-3.13454e-10	0.000000000000000E+000	1.98853e-05	1.98853e-05	0.0000000E+000	0.0000000E+000	0.02665	0.000000000000000E+000	7.28534e-05	3.05642	102749
1	1	0	0	0	0	0	13	3.8804	0.02665	2.76615	0.0266215	3.07495e-06	2.86976e-05	7.78449e-08	2.86976e-05	0	-0.320528	7.78449e-08	0.000000000000000E+000	0.000000000000000E+000	0.000000000000000E+000	-4.52364e-10	0.000000000000000E+000	2.86976e-05	2.86976e-05	0.0000000E+000	0.0000000E+000	0.02665	0.000000000000000E+000	7.36389e-05	3.08667	103907
1	1	0	0	0	0	0	13	5.2508	0.02665	2.79619	0.0266285	3.5675e-06	3.88321e-05	1.06033e-07	3.88321e-05	0	-0.320528	1.06033e-07	0.000000000000000E+000	0.000000000000000E+000	0.000000000000000E+000	-6.12116e-10	0.000000000000000E+000	3.88321e-05	3.88321e-05	0.0000000E+000	0.0000000E+000	0.02665	0.000000000000000E+000	7.44583e-05	3.11672	105008
1	1	0	0	0	0	0	13	6.8352	0.02665	2.82616	0.0266259	4.09984e-06	5.0549e-05	1.38975e-07	5.0549e-05	0	-0.320643	1.38975e-07	0.000000000000000E+000	0.000000000000000E+000	0.000000000000000E+000	-7.9681e-10	0.000000000000000E+000	5.0549e-05	5.0549e-05	0.0000000E+000	0.0000000E+000	0.02665	0.000000000000000E+000	7.52491e-05	3.1468	106143
1	1	0	0	0	0	0	13	8.6536	0.02665	2.85611	0.0266285	4.70326e-06	6.39961e-05	1.77184e-07	6.39961e-05	0	-0.320719	1.77184e-07	0.000000000000000E+000	0.000000000000000E+000	0.000000000000000E+000	-1.00878e-09	0.000000000000000E+000	6.39961e-05	6.39961e-05	0.0000000E+000	0.0000000E+000	0.02665	0.000000000000000E+000	7.60538e-05	3.17683	107258
1	1	0	0	0	0	0	13	10.8036	0.02665	2.88631	0.0266196	5.61737e-06	7.98957e-05	2.2284e-07	7.98957e-05	0	-0.320662	2.2284e-07	0.000000000000000E+000	0.000000000000000E+000	0.000000000000000E+000	-1.25941e-09	0.000000000000000E+000	7.98957e-05	7.98957e-05	0.0000000E+000	0.0000000E+000	0.02665	0.000000000000000E+000	7.68322e-05	3.20697	108428
1	1	0	0	0	0	0	13	13.3988	0.02665	2.91631	0.0266259	6.87749e-06	9.90876e-05	2.7853e-07	9.90876e-05	0	-0.320738	2.7853e-07	0.000000000000000E+000	0.000000000000000E+000	0.000000000000000E+000	-1.56193e-09	0.000000000000000E+000	9.90876e-05	9.90876e-05	0.0000000E+000	0.0000000E+000	0.02665	0.000000000000000E+000	7.76495e-05	3.23705	109529
1	1	0	0	0	0	0	13	16.58	0.02665	2.94653	0.0266189	8.40229e-06	0.000122613	3.47502e-07	0.000122613	0	-0.320719	3.47502e-07	0.000000000000000E+000	0.000000000000000E+000	0.000000000000000E+000	-1.93276e-09	0.000000000000000E+000	0.000122613	0.000122613	0.0000000E+000	0.0000000E+000	0.02665	0.000000000000000E+000	7.84334e-05	3.26725	110693
1	1	0	0	0	0	0	13	20.5362	0.02665	2.97663	0.026624	1.04136e-05	0.000151869	4.34156e-07	0.000151869	0	-0.320757	4.34156e-07	0.000000000000000E+000	0.000000000000000E+000	0.000000000000000E+000	-2.39393e-09	0.000000000000000E+000	0.000151869	0.000151869	0.0000000E+000	0.0000000E+000	0.02665	0.000000000000000E+000	7.92499e-05	3.29739	111803
1	1	0	0	0	0	0	13	25.497	0.02665	3.0066	0.0266189	1.31527e-05	0.000188554	5.43917e-07	0.000188554	0	-0.320796	5.43917e-07	0.000000000000000E+000	0.000000000000000E+000	0.000000000000000E+000	-2.9722e-09	0.000000000000000E+000	0.000188554	0.000188554	0.0000000E+000	0.0000000E+000	0.02665	0.000000000000000E+000	8.00325e-05	3.3274	112950
1	1	0	0	0	0	0	13	32.0688	0.02665	3.03655	0.0266272	1.80121e-05	0.000237151	6.90788e-07	0.000237151	0	-0.320948	6.90788e-07	0.000000000000000E+000	0.000000000000000E+000	0.000000000000000E+000	-3.73824e-09	0.000000000000000E+000	0.000237151	0.000237151	0.0000000E+000	0.0000000E+000	0.02665	0.000000000000000E+000	8.08548e-05	3.3575	114039
1	1	0	0	0	0	0	13	41.3972	0.02665	3.06669	0.0266202	2.60484e-05	0.000306132	9.01355e-07	0.000306132	0	-0.320948	9.01355e-07	0.000000000000000E+000	0.000000000000000E+000	0.000000000000000E+000	-4.82559e-09	0.000000000000000E+000	0.000306132	0.000306132	0.0000000E+000	0.0000000E+000	0.02665	0.000000000000000E+000	8.16359e-05	3.38764	115202
1	1	0	0	0	0	0	13	56.3904	0.02665	3.09668	0.0266176	4.40364e-05	0.000417001	1.24316e-06	0.000417001	0	-0.321005	1.24316e-06	0.000000000000000E+000	0.000000000000000E+000	0.000000000000000E+000	-6.57324e-09	0.000000000000000E+000	0.000417001	0.000417001	0.0000000E+000	0.0000000E+000	0.02665	0.000000000000000E+000	8.24263e-05	3.41768	116339
1	1	0	0	0	0	0	13	86.4594	0.02665	3.12659	0.0266157	9.58888e-05	0.000639347	1.93544e-06	0.000639347	0	-0.321139	1.93544e-06	0.000000000000000E+000	0.000000000000000E+000	0.000000000000000E+000	-1.00781e-08	0.000000000000000E+000	0.000639347	0.000639347	0.0000000E+000	0.0000000E+000	0.02665	0.000000000000000E+000	8.32165e-05	3.44773	117471
1	1	0	0	0	0	0	13	186.268	0.02665	3.15654	0.0266272	0.000380912	0.00137738	4.2566e-06	0.00137738	0	-0.321235	4.2566e-06	0.000000000000000E+000	0.000000000000000E+000	0.000000000000000E+000	-2.17118e-08	0.000000000000000E+000	0.00137738	0.00137738	0.0000000E+000	0.0000000E+000	0.02665	0.000000000000000E+000	8.40497e-05	3.47777	118546
1	1	0	0	0	0	0	13	511.501	0.02665	3.18643	0.0266272	0.000859381	0.00378235	1.18859e-05	0.00378235	0	-0.321349	1.18859e-05	0.000000000000000E+000	0.000000000000000E+000	0.000000000000000E+000	-5.96217e-08	0.000000000000000E+000	0.00378235	0.00378235	0.0000000E+000	0.0000000E+000	0.02665	0.000000000000000E+000	8.48457e-05	3.50778	119668
1	1	0	0	0	0	0	13	770.945	0.02665	3.21634	0.0266234	0.00057898	0.00570085	1.80258e-05	0.00570085	0	-0.321464	1.80258e-05	0.000000000000000E+000	0.000000000000000E+000	0.000000000000000E+000	-8.98633e-08	0.000000000000000E+000	0.00570085	0.00570085	0.0000000E+000	0.0000000E+000	0.02665	0.000000000000000E+000	8.56299e-05	3.5378	120809
1	1	0	0	0	0	0	13	1119.61	0.02665	3.24625	0.0266151	0.0011682	0.00827903	2.63625e-05	0.00827903	0	-0.321559	2.63625e-05	0.000000000000000E+000	0.000000000000000E+000	0.000000000000000E+000	-1.30503e-07	0.000000000000000E+000	0.00827903	0.00827903	0.0000000E+000	0.0000000E+000	0.02665	0.000000000000000E+000	8.63993e-05	3.56781	121970
1	1	0	0	0	0	0	13	1630.29	0.02665	3.27662	0.0266208	0.00109197	0.0120551	3.86728e-05	0.0120551	0	-0.321235	3.86728e-05	0.000000000000000E+000	0.000000000000000E+000	0.000000000000000E+000	-1.90026e-07	0.000000000000000E+000	0.0120551	0.0120551	0.0000000E+000	0.0000000E+000	0.02665	0.000000000000000E+000	8.72264e-05	3.59786	123085
1	1	0	0	0	0	0	13	2280.87	0.02665	3.30722	0.0266176	0.00218965	0.0168658	5.45199e-05	0.0168658	0	-0.320643	5.45199e-05	0.000000000000000E+000	0.000000000000000E+000	0.000000000000000E+000	-2.65858e-07	0.000000000000000E+000	0.0168658	0.0168658	0.0000000E+000	0.0000000E+000	0.02665	0.000000000000000E+000	8.80304e-05	3.62786	124249
1	1	0	0	0	0	0	13	5233.38	0.02665	3.33251	0.0266208	0.00887347	0.0386981	0.000127094	0.0386981	0	-0.318868	0.000127094	0.000000000000000E+000	0.000000000000000E+000	0.000000000000000E+000	-6.10003e-07	0.000000000000000E+000	0.0386981	0.0386981	0.0000000E+000	0.0000000E+000	0.02665	0.000000000000000E+000	8.87142e-05	3.65138	125184
1	1	0	0	0	0	0	13	8833.38	0.02665	3.34209	0.0266208	0.00887311	0.0653181	0.000215937	0.0653181	0	-0.317646	0.000215937	0.000000000000000E+000	0.000000000000000E+000	0.000000000000000E+000	-1.02962e-06	0.000000000000000E+000	0.0653181	0.0653181	0.0000000E+000	0.0000000E+000	0.02665	0.000000000000000E+000	8.89693e-05	3.65974	125544
1	1	0	0	0	0	0	13	12433.4	0.02665	3.35149	0.0266176	0.00887282	0.0919369	0.000305022	0.0919369	0	-0.317054	0.000305022	0.000000000000000E+000	0.000000000000000E+000	0.000000000000000E+000	-1.44921e-06	0.000000000000000E+000	0.0919369	0.0919369	0.0000000E+000	0.0000000E+000	0.02665	0.000000000000000E+000	8.92087e-05	3.66854	125912
1	1	0	0	0	0	0	13	16033.4	0.02665	3.3621	0.0266119	0.00887185	0.118553	0.000394364	0.118553	0	-0.316654	0.000394364	0.000000000000000E+000	0.000000000000000E+000	0.000000000000000E+000	-1.86877e-06	0.000000000000000E+000	0.118553	0.118553	0.0000000E+000	0.0000000E+000	0.02665	0.000000000000000E+000	8.94719e-05	3.67875	126338
1	1	0	0	0	0	0	13	19633.4	0.02665	3.37393	0.0266215	0.00887141	0.145168	0.000484002	0.145168	0	-0.316291	0.000484002	0.000000000000000E+000	0.000000000000000E+000	0.000000000000000E+000	-2.2883e-06	0.000000000000000E+000	0.145168	0.145168	0.0000000E+000	0.0000000E+000	0.02665	0.000000000000000E+000	8.9819e-05	3.69022	126737
1	1	0	0	0	0	0	13	23233.4	0.02665	3.38584	0.0266157	0.00887429	0.171789	0.00057398	0.171789	0	-0.31589	0.00057398	0.000000000000000E+000	0.000000000000000E+000	0.000000000000000E+000	-2.70794e-06	0.000000000000000E+000	0.171789	0.171789	0.0000000E+000	0.0000000E+000	0.02665	0.000000000000000E+000	9.01168e-05	3.70173	127212
1	1	0	0	0	0	0	13	26833.4	0.02665	3.39976	0.0266323	0.00887504	0.198414	0.000664303	0.198414	0	-0.315451	0.000664303	0.000000000000000E+000	0.000000000000000E+000	0.000000000000000E+000	-3.12762e-06	0.000000000000000E+000	0.198414	0.198414	0.0000000E+000	0.0000000E+000	0.02665	0.000000000000000E+000	9.05433e-05	3.71521	127656
1	1	0	0	0	0	0	13	30433.4	0.02665	3.41784	0.0266202	0.00887537	0.225039	0.000755053	0.225039	0	-0.315127	0.000755053	0.000000000000000E+000	0.000000000000000E+000	0.000000000000000E+000	-3.54732e-06	0.000000000000000E+000	0.225039	0.225039	0.0000000E+000	0.0000000E+000	0.02665	0.000000000000000E+000	9.09835e-05	3.73296	128393
1	1	0	0	0	0	0	13	34033.4	0.02665	3.44007	0.0266316	0.00887556	0.251666	0.000846343	0.251666	0	-0.314821	0.000846343	0.000000000000000E+000	0.000000000000000E+000	0.000000000000000E+000	-3.96704e-06	0.000000000000000E+000	0.251666	0.251666	0.0000000E+000	0.0000000E+000	0.02665	0.000000000000000E+000	9.16148e-05	3.75489	129172
1	1	0	0	0	0	0	13	37633.4	0.02665	3.46477	0.0266272	0.00887589	0.278293	0.000938265	0.278293	0	-0.314707	0.000938265	0.000000000000000E+000	0.000000000000000E+000	0.000000000000000E+000	-4.38677e-06	0.000000000000000E+000	0.278293	0.278293	0.0000000E+000	0.0000000E+000	0.02665	0.000000000000000E+000	9.22572e-05	3.77948	130122
1	1	0	0	0	0	0	13	41144	0.02665	3.49339	0.0266323	0.00821476	0.30426	0.00102859	0.30426	0	-0.314688	0.00102859	0.000000000000000E+000	0.000000000000000E+000	0.000000000000000E+000	-4.79609e-06	0.000000000000000E+000	0.30426	0.30426	0.0000000E+000	0.0000000E+000	0.02665	0.000000000000000E+000	9.30369e-05	3.80807	131171
1	1	0	0	0	0	0	13	44044.6	0.02665	3.52379	0.0266189	0.00641479	0.325715	0.00110384	0.325715	0	-0.314401	0.00110384	0.000000000000000E+000	0.000000000000000E+000	0.000000000000000E+000	-5.13429e-06	0.000000000000000E+000	0.325715	0.325715	0.0000000E+000	0.0000000E+000	0.02665	0.000000000000000E+000	9.37996e-05	3.8382	132379
1	1	0	0	0	0	0	13	46286	0.02665	3.55409	0.0266291	0.0051757	0.342294	0.0011625	0.342294	0	-0.314191	0.0011625	0.000000000000000E+000	0.000000000000000E+000	0.000000000000000E+000	-5.39562e-06	0.000000000000000E+000	0.342294	0.342294	0.0000000E+000	0.0000000E+000	0.02665	0.000000000000000E+000	9.46422e-05	3.86828	133466
1	1	0	0	0	0	0	13	48245.3	0.02665	3.58423	0.0266336	0.00476189	0.356786	0.00121422	0.356786	0	-0.314153	0.00121422	0.000000000000000E+000	0.000000000000000E+000	0.000000000000000E+000	-5.62407e-06	0.000000000000000E+000	0.356786	0.356786	0.0000000E+000	0.0000000E+000	0.02665	0.000000000000000E+000	9.54607e-05	3.89838	134576
1	1	0	0	0	0	0	13	50245.9	0.02665	3.61454	0.026624	0.00510487	0.371584	0.00126748	0.371584	0	-0.313924	0.00126748	0.000000000000000E+000	0.000000000000000E+000	0.000000000000000E+000	-5.85733e-06	0.000000000000000E+000	0.371584	0.371584	0.0000000E+000	0.0000000E+000	0.02665	0.000000000000000E+000	9.62336e-05	3.92846	135762
1	1	0	0	0	0	0	13	52558.2	0.02665	3.64491	0.0266361	0.00603818	0.388687	0.00132957	0.388687	0	-0.313561	0.00132957	0.000000000000000E+000	0.000000000000000E+000	0.000000000000000E+000	-6.12693e-06	0.000000000000000E+000	0.388687	0.388687	0.0000000E+000	0.0000000E+000	0.02665	0.000000000000000E+000	9.70862e-05	3.95847	136841
1	1	0	0	0	0	0	13	55362.1	0.02665	3.67501	0.0266272	0.00748166	0.409427	0.00140548	0.409427	0	-0.313466	0.00140548	0.000000000000000E+000	0.000000000000000E+000	0.000000000000000E+000	-6.45386e-06	0.000000000000000E+000	0.409427	0.409427	0.0000000E+000	0.0000000E+000	0.02665	0.000000000000000E+000	9.78552e-05	3.98848	138017
1	1	0	0	0	0	0	13	58792	0.02665	3.70521	0.0266202	0.0085754	0.434797	0.0014991	0.434797	0	-0.313275	0.0014991	0.000000000000000E+000	0.000000000000000E+000	0.000000000000000E+000	-6.85376e-06	0.000000000000000E+000	0.434797	0.434797	0.0000000E+000	0.0000000E+000	0.02665	0.000000000000000E+000	9.86334e-05	4.01848	139188
1	1	0	0	0	0	0	13	61521.1	0.02665	3.73535	0.0266246	0.0058379	0.454982	0.00157417	0.454982	0	-0.313141	0.00157417	0.000000000000000E+000	0.000000000000000E+000	0.000000000000000E+000	-7.17195e-06	0.000000000000000E+000	0.454982	0.454982	0.0000000E+000	0.0000000E+000	0.02665	0.000000000000000E+000	9.94523e-05	4.04849	140297
1	1	0	0	0	0	0	13	63408.5	0.02665	3.76528	0.0266132	0.00423377	0.468941	0.0016265	0.468941	0	-0.313275	0.0016265	0.000000000000000E+000	0.000000000000000E+000	0.000000000000000E+000	-7.39198e-06	0.000000000000000E+000	0.468941	0.468941	0.0000000E+000	0.0000000E+000	0.02665	0.000000000000000E+000	0.000100206	4.07855	141482
1	1	0	0	0	0	0	13	64930	0.02665	3.79525	0.0266087	0.00355725	0.480189	0.00166901	0.480189	0	-0.313332	0.00166901	0.000000000000000E+000	0.000000000000000E+000	0.000000000000000E+000	-7.56928e-06	0.000000000000000E+000	0.480189	0.480189	0.0000000E+000	0.0000000E+000	0.02665	0.000000000000000E+000	0.000100987	4.10858	142632
1	1	0	0	0	0	0	13	66408.6	0.02665	3.82524	0.0266183	0.00376449	0.49112	0.00171067	0.49112	0	-0.31337	0.00171067	0.000000000000000E+000	0.000000000000000E+000	0.000000000000000E+000	-7.7416e-06	0.000000000000000E+000	0.49112	0.49112	0.0000000E+000	0.0000000E+000	0.02665	0.000000000000000E+000	0.000101821	4.13861	143707
1	1	0	0	0	0	0	13	68145.3	0.02665	3.85517	0.0266107	0.00458648	0.503959	0.00175997	0.503959	0	-0.313485	0.00175997	0.000000000000000E+000	0.000000000000000E+000	0.000000000000000E+000	-7.94397e-06	0.000000000000000E+000	0.503959	0.503959	0.0000000E+000	0.0000000E+000	0.02665	0.000000000000000E+000	0.000102588	4.16865	144873
1	1	0	0	0	0	0	13	71277.4	0.02665	3.87551	0.0266081	0.00887143	0.527114	0.00184956	0.527114	0	-0.313199	0.00184956	0.000000000000000E+000	0.000000000000000E+000	0.000000000000000E+000	-8.30897e-06	0.000000000000000E+000	0.527114	0.527114	0.0000000E+000	0.0000000E+000	0.02665	0.000000000000000E+000	0.00010312	4.18871	145652
1	1	0	0	0	0	0	13	74877.4	0.02665	3.88382	0.0266202	0.00887251	0.55373	0.00195282	0.55373	0	-0.313103	0.00195282	0.000000000000000E+000	0.000000000000000E+000	0.000000000000000E+000	-8.72853e-06	0.000000000000000E+000	0.55373	0.55373	0.0000000E+000	0.0000000E+000	0.02665	0.000000000000000E+000	0.000103388	4.19692	145897
1	0	0	1	1	0	1	13	75785.6	-0.02665	3.88667	-0.0263207	1.49539e-09	0.560446	0.00197891	0.560446	0	-0.31233	0.00197891	0.000000000000000E+000	0.000000000000000E+000	0.000000000000000E+000	-8.83438e-06	0.000000000000000E+000	0.560446	0.560446	0.0000000E+000	0.0000000E+000	-0.02665	0.000000000000000E+000	-0.0001023	4.199	147666
1	0	0	1	0	0	1	13	78284.6	-0.02665	3.8659	-0.0266884	-0.00889587	0.54192	0.00205062	-0.018526	1	-0.311385	0.00197891	7.17054e-05	0.000000000000000E+000	0.000000000000000E+000	-8.54235e-06	0.018526	0.000000000000000E+000	0.018526	0.0000000E+000	0.0000000E+000	-0.02665	0.000000000000000E+000	-0.000103175	4.17729	144853
1	0	0	1	0	0	1	13	81884.6	-0.02665	3.84962	-0.0266865	-0.00889529	0.515233	0.00215364	-0.0452125	1	-0.311233	0.00197891	0.000174721	0.000000000000000E+000	0.000000000000000E+000	-8.12169e-06	0.0452125	0.000000000000000E+000	0.0452125	0.0000000E+000	0.0000000E+000	-0.02665	0.000000000000000E+000	-0.000102733	4.16085	144254
1	0	0	1	0	0	1	13	83511.1	-0.02665	3.81979	-0.0266852	-0.00335867	0.503177	0.00219989	-0.057269	1	-0.311004	0.00197891	0.000220974	0.000000000000000E+000	0.000000000000000E+000	-7.93164e-06	0.057269	0.000000000000000E+000	0.057269	0.0000000E+000	0.0000000E+000	-0.02665	0.000000000000000E+000	-0.000101932	4.13079	143142
1	0	0	1	0	0	1	13	84704.3	-0.02665	3.78978	-0.0266878	-0.00285354	0.494331	0.00223355	-0.0661141	1	-0.311004	0.00197891	0.000254633	0.000000000000000E+000	0.000000000000000E+000	-7.79221e-06	0.0661141	0.000000000000000E+000	0.0661141	0.0000000E+000	0.0000000E+000	-0.02665	0.000000000000000E+000	-0.000101141	4.10078	142004
1	0	0	1	0	0	1	13	85793.7	-0.02665	3.76016	-0.027348	-0.00221488	0.486257	0.00226404	-0.0741888	1	-0.307911	0.00197891	0.000285124	0.000000000000000E+000	0.000000000000000E+000	-7.66493e-06	0.0741888	0.000000000000000E+000	0.0741888	0.0000000E+000	0.0000000E+000	-0.02665	0.000000000000000E+000	-0.000102833	4.06807	137493
1	0	0	1	0	0	1	13	87635.6	-0.02665	3.72715	-0.0266795	-0.0043497	0.472605	0.00231515	-0.0878408	1	-0.310889	0.00197891	0.000336238	0.000000000000000E+000	0.000000000000000E+000	-7.44973e-06	0.0878408	0.000000000000000E+000	0.0878408	0.0000000E+000	0.0000000E+000	-0.02665	0.000000000000000E+000	-9.94386e-05	4.03804	139701
1	0	0	1	0	0	1	13	89975.9	-0.02665	3.69728	-0.0266789	-0.0066046	0.455258	0.00237953	-0.105188	1	-0.310736	0.00197891	0.000400618	0.000000000000000E+000	0.000000000000000E+000	-7.17629e-06	0.105188	0.000000000000000E+000	0.105188	0.0000000E+000	0.0000000E+000	-0.02665	0.000000000000000E+000	-9.86392e-05	4.00801	138585
1	0	0	1	0	0	1	13	93215.5	-0.02665	3.66714	-0.026682	-0.00810399	0.431247	0.00246795	-0.129199	1	-0.310851	0.00197891	0.000489032	0.000000000000000E+000	0.000000000000000E+000	-6.7978e-06	0.129199	0.000000000000000E+000	0.129199	0.0000000E+000	0.0000000E+000	-0.02665	0.000000000000000E+000	-9.78468e-05	3.97799	137438
1	0	0	1	0	0	1	13	95887.7	-0.02665	3.63719	-0.0266922	-0.00590614	0.411441	0.0025403	-0.149005	1	-0.310717	0.00197891	0.000561386	0.000000000000000E+000	0.000000000000000E+000	-6.4856e-06	0.149005	0.000000000000000E+000	0.149005	0.0000000E+000	0.0000000E+000	-0.02665	0.000000000000000E+000	-9.70847e-05	3.94791	136264
1	0	0	1	0	0	1	13	97956.4	-0.02665	3.60712	-0.0266852	-0.00476605	0.396108	0.00259585	-0.164338	1	-0.310756	0.00197891	0.000616936	0.000000000000000E+000	0.000000000000000E+000	-6.2439e-06	0.164338	0.000000000000000E+000	0.164338	0.0000000E+000	0.0000000E+000	-0.02665	0.000000000000000E+000	-9.62569e-05	3.91788	135173
1	0	0	1	0	0	1	13	99739.9	-0.02665	3.57708	-0.0266833	-0.00428871	0.382889	0.00264334	-0.177557	1	-0.310736	0.00197891	0.000664426	0.000000000000000E+000	0.000000000000000E+000	-6.03552e-06	0.177557	0.000000000000000E+000	0.177557	0.0000000E+000	0.0000000E+000	-0.02665	0.000000000000000E+000	-9.54484e-05	3.88782	134057
1	0	0	1	0	0	1	13	101465	-0.02665	3.54704	-0.026682	-0.00433308	0.370106	0.00268887	-0.19034	1	-0.310736	0.00197891	0.000709958	0.000000000000000E+000	0.000000000000000E+000	-5.83403e-06	0.19034	0.000000000000000E+000	0.19034	0.0000000E+000	0.0000000E+000	-0.02665	0.000000000000000E+000	-9.46422e-05	3.85777	132937
1	0	0	1	0	0	1	13	103416	-0.02665	3.51697	-0.0266827	-0.00514534	0.355643	0.00273995	-0.204802	1	-0.310794	0.00197891	0.000761037	0.000000000000000E+000	0.000000000000000E+000	-5.60606e-06	0.204802	0.000000000000000E+000	0.204802	0.0000000E+000	0.0000000E+000	-0.02665	0.000000000000000E+000	-9.38422e-05	3.82777	131807
1	0	0	1	0	0	1	13	105908	-0.02665	3.487	-0.0266903	-0.00671769	0.337172	0.00280463	-0.223274	1	-0.310698	0.00197891	0.000825716	0.000000000000000E+000	0.000000000000000E+000	-5.31489e-06	0.223274	0.000000000000000E+000	0.223274	0.0000000E+000	0.0000000E+000	-0.02665	0.000000000000000E+000	-9.30692e-05	3.7977	130647
1	0	0	1	0	0	1	13	108996	-0.02665	3.45694	-0.0266922	-0.00795754	0.314288	0.00288408	-0.246157	1	-0.310717	0.00197891	0.000905164	0.000000000000000E+000	0.000000000000000E+000	-4.95417e-06	0.246157	0.000000000000000E+000	0.246157	0.0000000E+000	0.0000000E+000	-0.02665	0.000000000000000E+000	-9.22734e-05	3.76766	129511
1	0	0	1	0	0	1	13	112243	-0.02665	3.42674	-0.0266897	-0.00786879	0.290221	0.00296692	-0.270224	1	-0.310851	0.00197891	0.000988007	0.000000000000000E+000	0.000000000000000E+000	-4.5748e-06	0.270224	0.000000000000000E+000	0.270224	0.0000000E+000	0.0000000E+000	-0.02665	0.000000000000000E+000	-9.14586e-05	3.73759	128392
1	0	0	1	0	0	1	13	115288	-0.02665	3.39662	-0.0266871	-0.00742717	0.267649	0.00304394	-0.292796	1	-0.310832	0.00197891	0.00106502	0.000000000000000E+000	0.000000000000000E+000	-4.219e-06	0.292796	0.000000000000000E+000	0.292796	0.0000000E+000	0.0000000E+000	-0.02665	0.000000000000000E+000	-9.06461e-05	3.70745	127276
1	0	0	1	0	0	1	13	118310	-0.02665	3.36667	-0.0266922	-0.00759849	0.245246	0.0031197	-0.315199	1	-0.310775	0.00197891	0.00114078	0.000000000000000E+000	0.000000000000000E+000	-3.86585e-06	0.315199	0.000000000000000E+000	0.315199	0.0000000E+000	0.0000000E+000	-0.02665	0.000000000000000E+000	-8.98639e-05	3.67745	126129
1	0	0	1	0	0	1	13	121788	-0.02665	3.33724	-0.0266897	-0.00889641	0.21946	0.00320612	-0.340986	1	-0.311118	0.00197891	0.00122721	0.000000000000000E+000	0.000000000000000E+000	-3.45938e-06	0.340986	0.000000000000000E+000	0.340986	0.0000000E+000	0.0000000E+000	-0.02665	0.000000000000000E+000	-8.90698e-05	3.64836	125038
1	0	0	1	0	0	1	13	124816	-0.02665	3.30788	-0.0266948	-0.0060453	0.197012	0.00328074	-0.363433	1	-0.310927	0.00197891	0.00130183	0.000000000000000E+000	0.000000000000000E+000	-3.10553e-06	0.363433	0.000000000000000E+000	0.363433	0.0000000E+000	0.0000000E+000	-0.02665	0.000000000000000E+000	-8.83031e-05	3.61881	123915
1	0	0	1	0	0	1	13	126353	-0.02665	3.27778	-0.0266871	-0.00301733	0.185617	0.00331829	-0.374828	1	-0.310927	0.00197891	0.00133937	0.000000000000000E+000	0.000000000000000E+000	-2.92591e-06	0.374828	0.000000000000000E+000	0.374828	0.0000000E+000	0.0000000E+000	-0.02665	0.000000000000000E+000	-8.74745e-05	3.58871	122822
1	0	0	1	0	0	1	13	127207	-0.02665	3.24775	-0.0266929	-0.00178693	0.179279	0.00333898	-0.381167	1	-0.310927	0.00197891	0.00136006	0.000000000000000E+000	0.000000000000000E+000	-2.826e-06	0.381167	0.000000000000000E+000	0.381167	0.0000000E+000	0.0000000E+000	-0.02665	0.000000000000000E+000	-8.66918e-05	3.55868	121671
1	0	0	1	0	0	1	13	127763	-0.02665	3.21767	-0.0266973	-0.0012069	0.175157	0.00335231	-0.385289	1	-0.310946	0.00197891	0.00137339	0.000000000000000E+000	0.000000000000000E+000	-2.76102e-06	0.385289	0.000000000000000E+000	0.385289	0.0000000E+000	0.0000000E+000	-0.02665	0.000000000000000E+000	-8.59031e-05	3.52862	120524
1	0	0	1	0	0	1	13	128160	-0.02665	3.18766	-0.0266979	-0.000875375	0.172218	0.00336172	-0.388228	1	-0.310908	0.00197891	0.00138281	0.000000000000000E+000	0.000000000000000E+000	-2.71469e-06	0.388228	0.000000000000000E+000	0.388228	0.0000000E+000	0.0000000E+000	-0.02665	0.000000000000000E+000	-8.5104e-05	3.49857	119397
1	0	0	1	0	0	1	13	128459	-0.02665	3.15762	-0.0266967	-0.000673667	0.17	0.00336876	-0.390446	1	-0.310851	0.00197891	0.00138985	0.000000000000000E+000	0.000000000000000E+000	-2.67973e-06	0.390446	0.000000000000000E+000	0.390446	0.0000000E+000	0.0000000E+000	-0.02665	0.000000000000000E+000	-8.42979e-05	3.46847	118278
1	0	0	1	0	0	1	13	128694	-0.02665	3.1275	-0.0266935	-0.000538728	0.168259	0.00337423	-0.392186	1	-0.310946	0.00197891	0.00139532	0.000000000000000E+000	0.000000000000000E+000	-2.65229e-06	0.392186	0.000000000000000E+000	0.392186	0.0000000E+000	0.0000000E+000	-0.02665	0.000000000000000E+000	-8.34838e-05	3.43844	117163
1	0	0	1	0	0	1	13	128889	-0.02665	3.09741	-0.0266922	-0.00045421	0.166812	0.00337874	-0.393633	1	-0.310985	0.00197891	0.00139982	0.000000000000000E+000	0.000000000000000E+000	-2.62949e-06	0.393633	0.000000000000000E+000	0.393633	0.0000000E+000	0.0000000E+000	-0.02665	0.000000000000000E+000	-8.26768e-05	3.4084	116042
1	0	0	1	0	0	1	13	129056	-0.02665	3.06722	-0.0266929	-0.000398335	0.165571	0.00338256	-0.394875	1	-0.311004	0.00197891	0.00140365	0.000000000000000E+000	0.000000000000000E+000	-2.60991e-06	0.394875	0.000000000000000E+000	0.394875	0.0000000E+000	0.0000000E+000	-0.02665	0.000000000000000E+000	-8.18728e-05	3.37822	114908
1	0	0	1	0	0	1	13	129202	-0.02665	3.03721	-0.0266878	-0.000346441	0.164487	0.00338587	-0.395959	1	-0.311004	0.00197891	0.00140696	0.000000000000000E+000	0.000000000000000E+000	-2.59283e-06	0.395959	0.000000000000000E+000	0.395959	0.0000000E+000	0.0000000E+000	-0.02665	0.000000000000000E+000	-8.10563e-05	3.34821	113805
1	0	0	1	0	0	1	13	129333	-0.02665	3.00722	-0.0266916	-0.000311555	0.163521	0.00338879	-0.396925	1	-0.310927	0.00197891	0.00140988	0.000000000000000E+000	0.000000000000000E+000	-2.5776e-06	0.396925	0.000000000000000E+000	0.396925	0.0000000E+000	0.0000000E+000	-0.02665	0.000000000000000E+000	-8.02675e-05	3.31815	112666
1	0	0	1	0	0	1	13	129451	-0.02665	2.97712	-0.0266897	-0.000282024	0.162645	0.00339142	-0.397801	1	-0.311004	0.00197891	0.0014125	0.000000000000000E+000	0.000000000000000E+000	-2.56379e-06	0.397801	0.000000000000000E+000	0.397801	0.0000000E+000	0.0000000E+000	-0.02665	0.000000000000000E+000	-7.94584e-05	3.28812	111546
1	0	0	1	0	0	1	13	129559	-0.02665	2.94715	-0.0266967	-0.000258845	0.161845	0.00339378	-0.398601	1	-0.310927	0.00197891	0.00141487	0.000000000000000E+000	0.000000000000000E+000	-2.55118e-06	0.398601	0.000000000000000E+000	0.398601	0.0000000E+000	0.0000000E+000	-0.02665	0.000000000000000E+000	-7.86791e-05	3.25808	110394
1	0	0	1	0	0	1	13	129658	-0.02665	2.91703	-0.0266935	-0.000240088	0.161106	0.00339595	-0.399339	1	-0.311004	0.00197891	0.00141704	0.000000000000000E+000	0.000000000000000E+000	-2.53954e-06	0.399339	0.000000000000000E+000	0.399339	0.0000000E+000	0.0000000E+000	-0.02665	0.000000000000000E+000	-7.78657e-05	3.22803	109279
1	0	0	1	0	0	1	13	129751	-0.02665	2.88697	-0.0266986	-0.000225099	0.160418	0.00339795	-0.400028	1	-0.311004	0.00197891	0.00141903	0.000000000000000E+000	0.000000000000000E+000	-2.52869e-06	0.400028	0.000000000000000E+000	0.400028	0.0000000E+000	0.0000000E+000	-0.02665	0.000000000000000E+000	-7.70779e-05	3.19797	108132
1	0	0	1	0	0	1	13	129838	-0.02665	2.85683	-0.0266979	-0.000211576	0.159776	0.00339979	-0.40067	1	-0.311061	0.00197891	0.00142088	0.000000000000000E+000	0.000000000000000E+000	-2.51857e-06	0.40067	0.000000000000000E+000	0.40067	0.0000000E+000	0.0000000E+000	-0.02665	0.000000000000000E+000	-7.62714e-05	3.16789	107005
1	0	0	1	0	0	1	13	129919	-0.02665	2.8269	-0.0266979	-0.000198161	0.159171	0.00340151	-0.401275	1	-0.310985	0.00197891	0.0014226	0.000000000000000E+000	0.000000000000000E+000	-2.50903e-06	0.401275	0.000000000000000E+000	0.401275	0.0000000E+000	0.0000000E+000	-0.02665	0.000000000000000E+000	-7.54723e-05	3.13788	105884
1	0	0	1	0	0	1	13	129997	-0.02665	2.79687	-0.026696	-0.000186626	0.158598	0.00340312	-0.401848	1	-0.311004	0.00197891	0.00142421	0.000000000000000E+000	0.000000000000000E+000	-2.5e-06	0.401848	0.000000000000000E+000	0.401848	0.0000000E+000	0.0000000E+000	-0.02665	0.000000000000000E+000	-7.46653e-05	3.10787	104767
1	0	0	1	0	0	1	13	130070	-0.02665	2.76682	-0.0266992	-0.000178978	0.158052	0.00340464	-0.402393	1	-0.310985	0.00197891	0.00142573	0.000000000000000E+000	0.000000000000000E+000	-2.4914e-06	0.402393	0.000000000000000E+000	0.402393	0.0000000E+000	0.0000000E+000	-0.02665	0.000000000000000E+000	-7.38721e-05	3.07781	103629
1	0	0	1	0	0	1	13	130141	-0.02665	2.73676	-0.0266859	-0.000172833	0.157529	0.00340608	-0.402916	1	-0.311004	0.00197891	0.00142717	0.000000000000000E+000	0.000000000000000E+000	-2.48315e-06	0.402916	0.000000000000000E+000	0.402916	0.0000000E+000	0.0000000E+000	-0.02665	0.000000000000000E+000	-7.30328e-05	3.04776	102555
1	0	0	1	0	0	1	13	130209	-0.02665	2.70666	-0.026691	-0.000166104	0.157027	0.00340745	-0.403418	1	-0.311061	0.00197891	0.00142853	0.000000000000000E+000	0.000000000000000E+000	-2.47524e-06	0.403418	0.000000000000000E+000	0.403418	0.0000000E+000	0.0000000E+000	-0.02665	0.000000000000000E+000	-7.22433e-05	3.01772	101407
1	0	0	1	0	0	1	13	130248	-0.02665	2.68891	-0.0266941	-1.48301e-09	0.156736	0.00340823	-0.40371	1	-0.311156	0.00197891	0.00142932	0.000000000000000E+000	0.000000000000000E+000	-2.47065e-06	0.40371	0.000000000000000E+000	0.40371	0.0000000E+000	0.0000000E+000	-0.02665	0.000000000000000E+000	-7.1778e-05	3.00006	100730
1	1	0	0	0	0	2	13	130248	0.02665	2.70829	0.0266132	1.32035e-06	0.156738	0.00340824	2.30802e-06	2	-0.312168	6.22963e-09	0.000000000000000E+000	0.000000000000000E+000	0.000000000000000E+000	-2.47069e-06	0.000000000000000E+000	2.30802e-06	2.30802e-06	0.0000000E+000	0.0000000E+000	0.02665	1	7.20763e-05	3.02046	101765
1	1	0	0	0	0	2	13	130249	0.02665	2.73801	0.0266196	1.55396e-06	0.156743	0.00340825	6.73039e-06	2	-0.312454	1.82738e-08	0.000000000000000E+000	0.000000000000000E+000	0.000000000000000E+000	-2.47076e-06	0.000000000000000E+000	6.73039e-06	6.73039e-06	0.0000000E+000	0.0000000E+000	0.02665	1	7.28846e-05	3.05046	102857
1	1	0	0	0	0	2	13	130249	0.02665	2.76827	0.0266107	1.77576e-06	0.156748	0.00340827	1.17871e-05	2	-0.312378	3.21967e-08	0.000000000000000E+000	0.000000000000000E+000	0.000000000000000E+000	-2.47084e-06	0.000000000000000E+000	1.17871e-05	1.17871e-05	0.0000000E+000	0.0000000E+000	0.02665	1	7.36653e-05	3.08064	104028
1	1	0	0	0	0	2	13	130250	0.02665	2.79839	0.0266119	1.91031e-06	0.156753	0.00340828	1.7382e-05	2	-0.312569	4.77697e-08	0.000000000000000E+000	0.000000000000000E+000	0.000000000000000E+000	-2.47092e-06	0.000000000000000E+000	1.7382e-05	1.7382e-05	0.0000000E+000	0.0000000E+000	0.02665	1	7.44704e-05	3.11096	105155
1	1	0	0	0	0	2	13	130251	0.02665	2.82849	0.0266164	2.11287e-06	0.156759	0.0034083	2.35639e-05	2	-0.312569	6.51626e-08	0.000000000000000E+000	0.000000000000000E+000	0.000000000000000E+000	-2.47102e-06	0.000000000000000E+000	2.35639e-05	2.35639e-05	0.0000000E+000	0.0000000E+000	0.02665	1	7.52841e-05	3.14106	106269
1	1	0	0	0	0	2	13	130252	0.02665	2.85876	0.0266132	2.35091e-06	0.156766	0.00340832	3.03816e-05	2	-0.312531	8.455e-08	0.000000000000000E+000	0.000000000000000E+000	0.000000000000000E+000	-2.47113e-06	0.000000000000000E+000	3.03816e-05	3.03816e-05	0.0000000E+000	0.0000000E+000	0.02665	1	7.60808e-05	3.17129	107419
1	1	0	0	0	0	2	13	130253	0.02665	2.88879	0.0266202	2.57866e-06	0.156774	0.00340834	3.78632e-05	2	-0.312607	1.06051e-07	0.000000000000000E+000	0.000000000000000E+000	0.000000000000000E+000	-2.47125e-06	0.000000000000000E+000	3.78632e-05	3.78632e-05	0.0000000E+000	0.0000000E+000	0.02665	1	7.69001e-05	3.2014	108519
1	1	0	0	0	0	2	13	130254	0.02665	2.919	0.0266126	2.79452e-06	0.156782	0.00340836	4.60324e-05	2	-0.312454	1.29775e-07	0.000000000000000E+000	0.000000000000000E+000	0.000000000000000E+000	-2.47138e-06	0.000000000000000E+000	4.60324e-05	4.60324e-05	0.0000000E+000	0.0000000E+000	0.02665	1	7.76822e-05	3.23146	109685
1	1	0	0	0	0	2	13	130255	0.02665	2.9489	0.0266189	3.11683e-06	0.156791	0.00340839	5.5025e-05	2	-0.312626	1.5616e-07	0.000000000000000E+000	0.000000000000000E+000	0.000000000000000E+000	-2.47152e-06	0.000000000000000E+000	5.5025e-05	5.5025e-05	0.0000000E+000	0.0000000E+000	0.02665	1	7.84965e-05	3.26152	110782
1	1	0	0	0	0	2	13	130257	0.02665	2.97913	0.0266215	3.39635e-06	0.156801	0.00340842	6.48385e-05	2	-0.312531	1.85248e-07	0.000000000000000E+000	0.000000000000000E+000	0.000000000000000E+000	-2.47167e-06	0.000000000000000E+000	6.48385e-05	6.48385e-05	0.0000000E+000	0.0000000E+000	0.02665	1	7.93089e-05	3.29166	111907
1	1	0	0	0	0	2	13	130258	0.02665	3.00922	0.0266132	3.68461e-06	0.156812	0.00340845	7.56277e-05	2	-0.312569	2.17554e-07	0.000000000000000E+000	0.000000000000000E+000	0.000000000000000E+000	-2.47184e-06	0.000000000000000E+000	7.56277e-05	7.56277e-05	0.0000000E+000	0.0000000E+000	0.02665	1	8.00848e-05	3.32178	113072
1	1	0	0	0	0	2	13	130260	0.02665	3.03926	0.0266094	3.96261e-06	0.156823	0.00340849	8.73484e-05	2	-0.312588	2.53002e-07	0.000000000000000E+000	0.000000000000000E+000	0.000000000000000E+000	-2.47203e-06	0.000000000000000E+000	8.73484e-05	8.73484e-05	0.0000000E+000	0.0000000E+000	0.02665	1	8.08728e-05	3.35185	114218
1	1	0	0	0	0	2	13	130261	0.02665	3.06934	0.0266164	4.45796e-06	0.156836	0.00340853	0.000100225	2	-0.312569	2.92333e-07	0.000000000000000E+000	0.000000000000000E+000	0.000000000000000E+000	-2.47223e-06	0.000000000000000E+000	0.000100225	0.000100225	0.0000000E+000	0.0000000E+000	0.02665	1	8.16948e-05	3.38191	115318
1	1	0	0	0	0	2	13	130263	0.02665	3.09931	0.026617	4.87644e-06	0.15685	0.00340857	0.000114342	2	-0.312626	3.35874e-07	0.000000000000000E+000	0.000000000000000E+000	0.000000000000000E+000	-2.47245e-06	0.000000000000000E+000	0.000114342	0.000114342	0.0000000E+000	0.0000000E+000	0.02665	1	8.24944e-05	3.41194	116441
1	1	0	0	0	0	2	13	130265	0.02665	3.12957	0.0266183	5.38649e-06	0.156866	0.00340862	0.000130055	2	-0.312512	3.84813e-07	0.000000000000000E+000	0.000000000000000E+000	0.000000000000000E+000	-2.4727e-06	0.000000000000000E+000	0.000130055	0.000130055	0.0000000E+000	0.0000000E+000	0.02665	1	8.33037e-05	3.44208	117572
1	1	0	0	0	0	2	13	130268	0.02665	3.1595	0.0266164	6.17309e-06	0.156884	0.00340867	0.00014773	2	-0.312645	4.40396e-07	0.000000000000000E+000	0.000000000000000E+000	0.000000000000000E+000	-2.47298e-06	0.000000000000000E+000	0.00014773	0.00014773	0.0000000E+000	0.0000000E+000	0.02665	1	8.40943e-05	3.47214	118705
1	1	0	0	0	0	2	13	130271	0.02665	3.18958	0.0266183	7.40623e-06	0.156905	0.00340874	0.000168638	2	-0.312588	5.06779e-07	0.000000000000000E+000	0.000000000000000E+000	0.000000000000000E+000	-2.47331e-06	0.000000000000000E+000	0.000168638	0.000168638	0.0000000E+000	0.0000000E+000	0.02665	1	8.49011e-05	3.50217	119827
1	1	0	0	0	0	2	13	130274	0.02665	3.21964	0.0266119	1.04285e-05	0.156932	0.00340883	0.000196468	2	-0.312645	5.95984e-07	0.000000000000000E+000	0.000000000000000E+000	0.000000000000000E+000	-2.47375e-06	0.000000000000000E+000	0.000196468	0.000196468	0.0000000E+000	0.0000000E+000	0.02665	1	8.56809e-05	3.53229	120985
1	1	0	0	0	0	2	13	130281	0.02665	3.24965	0.0266189	2.26417e-05	0.156984	0.00340899	0.000247687	2	-0.312798	7.61765e-07	0.000000000000000E+000	0.000000000000000E+000	0.000000000000000E+000	-2.47455e-06	0.000000000000000E+000	0.000247687	0.000247687	0.0000000E+000	0.0000000E+000	0.02665	1	8.65022e-05	3.56245	122080
1	1	0	0	0	0	2	13	130326	0.02665	3.27958	0.0266081	0.000213309	0.157311	0.00341007	0.000575072	2	-0.312874	1.83252e-06	0.000000000000000E+000	0.000000000000000E+000	0.000000000000000E+000	-2.47971e-06	0.000000000000000E+000	0.000575072	0.000575072	0.0000000E+000	0.0000000E+000	0.02665	1	8.72634e-05	3.59245	123255
1	1	0	0	0	0	2	13	131376	0.02665	3.30932	0.0266176	0.00495731	0.165074	0.00343569	0.008338	2	-0.313218	2.74532e-05	0.000000000000000E+000	0.000000000000000E+000	0.000000000000000E+000	-2.60208e-06	0.000000000000000E+000	0.008338	0.008338	0.0000000E+000	0.0000000E+000	0.02665	1	8.80863e-05	3.62254	124328
1	1	0	0	0	0	2	13	134831	0.02665	3.33759	0.0266183	0.00887082	0.190615	0.0035206	0.0338796	2	-0.313084	0.000112363	0.000000000000000E+000	0.000000000000000E+000	0.000000000000000E+000	-3.0047e-06	0.000000000000000E+000	0.0338796	0.0338796	0.0000000E+000	0.0000000E+000	0.02665	1	8.88409e-05	3.65067	125387
1	1	0	0	0	0	2	13	138431	0.02665	3.35794	0.0266157	0.00887053	0.217228	0.00360969	0.0604916	2	-0.313218	0.000201456	0.000000000000000E+000	0.000000000000000E+000	0.000000000000000E+000	-3.42419e-06	0.000000000000000E+000	0.0604916	0.0604916	0.0000000E+000	0.0000000E+000	0.02665	1	8.9374e-05	3.67116	126164
1	1	0	0	0	0	2	13	142031	0.02665	3.38199	0.0266068	0.00887012	0.243838	0.00369935	0.0871021	2	-0.313351	0.000291112	0.000000000000000E+000	0.000000000000000E+000	0.000000000000000E+000	-3.84365e-06	0.000000000000000E+000	0.0871021	0.0871021	0.0000000E+000	0.0000000E+000	0.02665	1	8.9984e-05	3.69534	127110
1	1	0	0	0	0	2	13	145492	0.02665	3.4118	0.026617	0.00823205	0.269426	0.00378625	0.11269	2	-0.313561	0.000378018	0.000000000000000E+000	0.000000000000000E+000	0.000000000000000E+000	-4.24699e-06	0.000000000000000E+000	0.11269	0.11269	0.0000000E+000	0.0000000E+000	0.02665	1	9.0812e-05	3.72537	128181
1	1	0	0	0	0	2	13	148814	0.02665	3.44181	0.0266132	0.00822144	0.293982	0.0038704	0.137246	2	-0.313619	0.000462164	0.000000000000000E+000	0.000000000000000E+000	0.000000000000000E+000	-4.63408e-06	0.000000000000000E+000	0.137246	0.137246	0.0000000E+000	0.0000000E+000	0.02665	1	9.15976e-05	3.75543	129327
1	1	0	0	0	0	2	13	152223	0.02665	3.47212	0.0266126	0.00832683	0.319182	0.00395751	0.162446	2	-0.31339	0.000549272	0.000000000000000E+000	0.000000000000000E+000	0.000000000000000E+000	-5.0313e-06	0.000000000000000E+000	0.162446	0.162446	0.0000000E+000	0.0000000E+000	0.02665	1	9.24021e-05	3.78551	130469
1	1	0	0	0	0	2	13	155260	0.02665	3.50226	0.0266183	0.00694164	0.341643	0.00403581	0.184907	2	-0.313294	0.000627581	0.000000000000000E+000	0.000000000000000E+000	0.000000000000000E+000	-5.38536e-06	0.000000000000000E+000	0.184907	0.184907	0.0000000E+000	0.0000000E+000	0.02665	1	9.32242e-05	3.81556	131574
1	1	0	0	0	0	2	13	157610	0.02665	3.53238	0.0266272	0.00530281	0.359018	0.00409691	0.202282	2	-0.313199	0.00068868	0.000000000000000E+000	0.000000000000000E+000	0.000000000000000E+000	-5.65925e-06	0.000000000000000E+000	0.202282	0.202282	0.0000000E+000	0.0000000E+000	0.02665	1	9.40575e-05	3.84558	132661
1	1	0	0	0	0	2	13	159496	0.02665	3.56258	0.0266272	0.00444643	0.372972	0.00414641	0.216236	2	-0.313065	0.000738175	0.000000000000000E+000	0.000000000000000E+000	0.000000000000000E+000	-5.87921e-06	0.000000000000000E+000	0.216236	0.216236	0.0000000E+000	0.0000000E+000	0.02665	1	9.48615e-05	3.87565	133795
1	1	0	0	0	0	2	13	161248	0.02665	3.59263	0.0266278	0.00435781	0.38593	0.00419276	0.229194	2	-0.313046	0.000784529	0.000000000000000E+000	0.000000000000000E+000	0.000000000000000E+000	-6.08346e-06	0.000000000000000E+000	0.229194	0.229194	0.0000000E+000	0.0000000E+000	0.02665	1	9.56638e-05	3.90567	134920
1	1	0	0	0	0	2	13	163157	0.02665	3.62284	0.0266316	0.00498005	0.400045	0.00424369	0.243309	2	-0.312874	0.000835457	0.000000000000000E+000	0.000000000000000E+000	0.000000000000000E+000	-6.30597e-06	0.000000000000000E+000	0.243309	0.243309	0.0000000E+000	0.0000000E+000	0.02665	1	9.64823e-05	3.93572	136035
1	1	0	0	0	0	2	13	165532	0.02665	3.65296	0.0266361	0.00635484	0.417612	0.0043076	0.260876	2	-0.312779	0.000899369	0.000000000000000E+000	0.000000000000000E+000	0.000000000000000E+000	-6.58288e-06	0.000000000000000E+000	0.260876	0.260876	0.0000000E+000	0.0000000E+000	0.02665	1	9.73007e-05	3.96574	137143
1	1	0	0	0	0	2	13	168659	0.02665	3.68303	0.0266342	0.00844521	0.440744	0.00439246	0.284008	2	-0.312722	0.000984226	0.000000000000000E+000	0.000000000000000E+000	0.000000000000000E+000	-6.94751e-06	0.000000000000000E+000	0.284008	0.284008	0.0000000E+000	0.0000000E+000	0.02665	1	9.80945e-05	3.99575	138282
1	1	0	0	0	0	2	13	171883	0.02665	3.71332	0.026631	0.00706089	0.464601	0.00448066	0.307865	2	-0.312531	0.00107243	0.000000000000000E+000	0.000000000000000E+000	0.000000000000000E+000	-7.32357e-06	0.000000000000000E+000	0.307865	0.307865	0.0000000E+000	0.0000000E+000	0.02665	1	9.88895e-05	4.02585	139436
1	1	0	0	0	0	2	13	174053	0.02665	3.74342	0.0266405	0.00469636	0.480652	0.00454048	0.323916	2	-0.31255	0.00113225	0.000000000000000E+000	0.000000000000000E+000	0.000000000000000E+000	-7.57658e-06	0.000000000000000E+000	0.323916	0.323916	0.0000000E+000	0.0000000E+000	0.02665	1	9.97268e-05	4.05597	140516
1	1	0	0	0	0	2	13	175610	0.02665	3.77343	0.0266361	0.00349565	0.492171	0.00458377	0.335435	2	-0.312588	0.00117554	0.000000000000000E+000	0.000000000000000E+000	0.000000000000000E+000	-7.75816e-06	0.000000000000000E+000	0.335435	0.335435	0.0000000E+000	0.0000000E+000	0.02665	1	0.000100509	4.08602	141666
1	1	0	0	0	0	2	13	176918	0.02665	3.80355	0.0266374	0.00315466	0.501851	0.00462044	0.345115	2	-0.312531	0.0012122	0.000000000000000E+000	0.000000000000000E+000	0.000000000000000E+000	-7.91074e-06	0.000000000000000E+000	0.345115	0.345115	0.0000000E+000	0.0000000E+000	0.02665	1	0.000101317	4.11608	142790
1	1	0	0	0	0	2	13	178294	0.02665	3.83371	0.0266386	0.00356913	0.51203	0.00465931	0.355294	2	-0.312454	0.00125107	0.000000000000000E+000	0.000000000000000E+000	0.000000000000000E+000	-8.0712e-06	0.000000000000000E+000	0.355294	0.355294	0.0000000E+000	0.0000000E+000	0.02665	1	0.000102125	4.14616	143915
1	1	0	0	0	0	2	13	180018	0.02665	3.86374	0.0266367	0.00470011	0.524784	0.0047084	0.368048	2	-0.312531	0.00130017	0.000000000000000E+000	0.000000000000000E+000	0.000000000000000E+000	-8.27225e-06	0.000000000000000E+000	0.368048	0.368048	0.0000000E+000	0.0000000E+000	0.02665	1	0.000102917	4.17627	145053
1	1	0	0	0	0	2	13	183488	0.02665	3.87929	0.026638	0.00887862	0.55046	0.00480787	0.393724	2	-0.312473	0.00139964	0.000000000000000E+000	0.000000000000000E+000	0.000000000000000E+000	-8.67698e-06	0.000000000000000E+000	0.393724	0.393724	0.0000000E+000	0.0000000E+000	0.02665	1	0.000103337	4.19177	145630
1	1	0	0	0	0	2	13	186352	0.02665	3.88739	0.0266304	0.00342974	0.571648	0.00489014	0.414912	2	-0.312588	0.00148191	0.000000000000000E+000	0.000000000000000E+000	0.000000000000000E+000	-9.01096e-06	0.000000000000000E+000	0.414912	0.414912	0.0000000E+000	0.0000000E+000	0.02665	1	0.000103523	4.19997	145976
2	1	0	1	0	0	3	13	186382	3.88747	3.88767	0.0268123	0.000232768	0.571881	0.00489105	0.415145	2	-0.312397	0.00148281	0.000000000000000E+000	0.000000000000000E+000	0.000000000000000E+000	-9.01463e-06	0.000000000000000E+000	0.415145	0.415145	0.0000000E+000	3.88747	0.0000000E+000	1	0.000104237	4.20007	144996
2	1	0	1	0	0	3	13	186472	3.88747	3.88775	0.0246826	0.000209773	0.572528	0.00489356	0.415792	2	-0.312263	0.00148533	0.000000000000000E+000	0.000000000000000E+000	0.000000000000000E+000	-9.02483e-06	0.000000000000000E+000	0.415792	0.415792	0.0000000E+000	3.88747	0.0000000E+000	1	9.59598e-05	4.20001	157510
2	1	0	1	0	0	3	13	186562	3.88747	3.88756	0.023238	0.000195645	0.573128	0.0048959	0.416392	2	-0.312416	0.00148766	0.000000000000000E+000	0.000000000000000E+000	0.000000000000000E+000	-9.0343e-06	0.000000000000000E+000	0.416392	0.416392	0.0000000E+000	3.88747	0.0000000E+000	1	9.03392e-05	4.19997	167293
2	1	0	1	0	0	3	13	186652	3.88747	3.88765	0.022011	0.000184934	0.573693	0.0048981	0.416958	2	-0.312397	0.00148986	0.000000000000000E+000	0.000000000000000E+000	0.000000000000000E+000	-9.04321e-06	0.000000000000000E+000	0.416958	0.416958	0.0000000E+000	3.88747	0.0000000E+000	1	8.55711e-05	4.20005	176623
2	1	0	1	0	0	3	13	186742	3.88747	3.88765	0.020546	0.000175425	0.574229	0.00490018	0.417493	2	-0.312378	0.00149194	0.000000000000000E+000	0.000000000000000E+000	0.000000000000000E+000	-9.05164e-06	0.000000000000000E+000	0.417493	0.417493	0.0000000E+000	3.88747	0.0000000E+000	1	7.98759e-05	4.20003	189217
2	1	0	1	0	0	3	13	186832	3.88747	3.88769	0.0196103	0.000167058	0.574738	0.00490216	0.418002	2	-0.31234	0.00149392	0.000000000000000E+000	0.000000000000000E+000	0.000000000000000E+000	-9.05968e-06	0.000000000000000E+000	0.418002	0.418002	0.0000000E+000	3.88747	0.0000000E+000	1	7.62389e-05	4.20003	198247
2	1	0	1	0	0	3	13	186922	3.88747	3.88762	0.0195378	0.000159686	0.575224	0.00490405	0.418488	2	-0.312263	0.00149581	0.000000000000000E+000	0.000000000000000E+000	0.000000000000000E+000	-9.06734e-06	0.000000000000000E+000	0.418488	0.418488	0.0000000E+000	3.88747	0.0000000E+000	1	7.59555e-05	4.19988	198979
2	1	0	1	0	0	3	13	187012	3.88747	3.88769	0.0181651	0.000152164	0.575689	0.00490585	0.418953	2	-0.312206	0.00149762	0.000000000000000E+000	0.000000000000000E+000	0.000000000000000E+000	-9.07466e-06	0.000000000000000E+000	0.418953	0.418953	0.0000000E+000	3.88747	0.0000000E+000	1	7.06204e-05	4.1999	214020
2	1	0	1	0	0	3	13	187102	3.88747	3.88767	0.0171957	0.000146519	0.576134	0.00490758	0.419398	2	-0.312225	0.00149935	0.000000000000000E+000	0.000000000000000E+000	0.000000000000000E+000	-9.08168e-06	0.000000000000000E+000	0.419398	0.419398	0.0000000E+000	3.88747	0.0000000E+000	1	6.68512e-05	4.1999	226084
2	1	0	1	0	0	3	13	187192	3.88747	3.88756	0.0171976	0.00014092	0.576562	0.00490925	0.419826	2	-0.312263	0.00150101	0.000000000000000E+000	0.000000000000000E+000	0.000000000000000E+000	-9.08843e-06	0.000000000000000E+000	0.419826	0.419826	0.0000000E+000	3.88747	0.0000000E+000	1	6.68567e-05	4.19982	226052
2	1	0	1	0	0	3	13	187252	3.88747	3.88763	0.0165838	0.000136391	0.576837	0.00491032	0.420102	2	-0.312283	0.00150208	0.000000000000000E+000	0.000000000000000E+000	0.000000000000000E+000	-9.09277e-06	0.000000000000000E+000	0.420102	0.420102	0.0000000E+000	3.88747	0.0000000E+000	1	6.44716e-05	4.19992	234424