File: Fresh Data/276/276_230607_C11.mpt
EC-Lab ASCII FILE
Nb header lines : 95

Modulo Bat

Run on channel : 11 (SN 55107)
User :
CE vs. WE compliance from -10 V to 10 V
Electrode connection : standard
Potential control : Ewe
Ewe ctrl range : min = -10.00 V, max = 10.00 V
Safety Limits :
	Do not start on E overload
Acquisition started on : 06/07/2023 17:17:50.025
Technique started on : 06/07/2023 17:17:50.025
Loaded Setting File :  C:\Users\OEMS\Documents\EC-Lab\Data\Mitch\Protocols\AMIDR Form.mps
Saved on :
	File : 276_230607_C11.mpr
	Directory : C:\Users\OEMS\Documents\EC-Lab\Data\Mitch\Results\Formation\
	Host : 192.168.1.58
Device : VMP-3e (SN .003109)
Address : USB
EC-Lab for windows v11.43 (software)
Internet server v11.40 (firmware)
Command interpretor v11.40 (firmware)
Electrode material :
Initial state :
Electrolyte :
Comments :
Mass of active material : 1.855 mg
 at x = 0.000
Molecular weight of active material (at x = 0) : 0.001 g/mol
Atomic weight of intercalated ion : 0.001 g/mol
Acquisition started at : xo = 0.000
Number of e- transfered per intercalated ion : 1
for DX = 1, DQ = 49716.781 mA.h
Battery capacity : 0.417 mA.h
Electrode surface area : 0.001 cm²
Characteristic mass : 0.001 g
Volume (V) : 0.001 cm³
Record Ece
Cycle Definition : Charge/Discharge alternance
Ns                  0                   1                   2                   3
ctrl_type           CC                  CC                  CC                  CV
Apply I/C           C / N               C / N               C / N               C / N
current/potential   current             current             current             current
ctrl1_val           60.000              60.000              60.000              0.000
ctrl1_val_unit      µA                  µA                  µA                  V
ctrl1_val_vs        <None>              <None>              <None>              Emeas
ctrl2_val
ctrl2_val_unit
ctrl2_val_vs
ctrl3_val
ctrl3_val_unit
ctrl3_val_vs
N                   20.00               20.00               20.00               20.00
charge/discharge    Charge              Discharge           Charge              Charge
charge/discharge_1  Charge              Charge              Charge              Charge
Apply I/C_1         I                   I                   I                   I
N1                  0.00                0.00                0.00                0.00
ctrl4_val
ctrl4_val_unit
ctrl_seq            0                   0                   0                   0
ctrl_repeat         0                   0                   0                   0
ctrl_trigger        Falling Edge        Falling Edge        Falling Edge        Falling Edge
ctrl_TO_t           0.000               0.000               0.000               0.000
ctrl_TO_t_unit      d                   d                   d                   d
ctrl_Nd             6                   6                   6                   6
ctrl_Na             2                   2                   2                   2
ctrl_corr           0                   0                   0                   0
lim_nb              1                   1                   1                   1
lim1_type           Ewe-Ece             Ewe-Ece             Ewe-Ece             Time
lim1_comp           >                   <                   >                   >
lim1_Q              Q limit             Q limit             Q limit             Q limit
lim1_value          4.200               3.000               4.200               15.000
lim1_value_unit     V                   V                   V                   mn
lim1_action         Next sequence       Next sequence       Next sequence       Next sequence
lim1_seq            1                   2                   3                   4
rec_nb              2                   2                   2                   1
rec1_type           Time                Time                Time                Time
rec1_value          20.000              20.000              20.000              30.000
rec1_value_unit     mn                  mn                  mn                  s
rec2_type           Ewe-Ece             Ewe-Ece             Ewe-Ece             Ewe-Ece
rec2_value          0.010               0.010               0.010               0.010
rec2_value_unit     V                   V                   V                   V
E range min (V)     -10.000             -10.000             -10.000             -10.000
E range max (V)     10.000              10.000              10.000              10.000
I Range             10 µA               10 µA               10 µA               10 µA
I Range min         Unset               Unset               Unset               Unset
I Range max         Unset               Unset               Unset               Unset
I Range init        Unset               Unset               Unset               Unset
auto rest           0                   0                   0                   0
Bandwidth           5                   5                   5                   5

mode	ox/red	error	control changes	Ns changes	counter inc.	Ns	I Range	time/s	control/V/mA	Ewe/V	I/mA	dq/mA.h	(Q-Qo)/mA.h	|Energy|/W.h	Q charge/discharge/mA.h	half cycle	Ece/V	Energy charge/W.h	Energy discharge/W.h	Capacitance charge/µF	Capacitance discharge/µF	x	Q discharge/mA.h	Q charge/mA.h	Capacity/mA.h	Efficiency/%	control/V	control/mA	cycle number	P/W	Ewe-Ece/V	R/Ohm
1	1	0	1	0	0	0	14	0.000000000000000E+000	0.02085	2.68035	0.0207229	0.000000000000000E+000	0.000000000000000E+000	0.000000000000000E+000	0.000000000000000E+000	0	-0.313708	0.000000000000000E+000	0.000000000000000E+000	0.000000000000000E+000	0.000000000000000E+000	0.000000000000000E+000	0.000000000000000E+000	0.000000000000000E+000	0.000000000000000E+000	0.0000000E+000	0.0000000E+000	0.02085	0.000000000000000E+000	5.55446e-05	2.99406	129343
1	1	0	1	0	0	0	14	0.5042	0.02085	2.70381	0.0208537	1.2964e-06	2.92066e-06	7.86246e-09	2.92066e-06	0	-0.320413	7.86246e-09	0.000000000000000E+000	0.000000000000000E+000	0.000000000000000E+000	-5.87459e-11	0.000000000000000E+000	2.92066e-06	2.92066e-06	0.0000000E+000	0.0000000E+000	0.02085	0.000000000000000E+000	5.63845e-05	3.02422	129656
1	1	0	1	0	0	0	14	1.225	0.02085	2.73407	0.0208527	1.41573e-06	7.09602e-06	1.92149e-08	7.09602e-06	0	-0.320413	1.92149e-08	0.000000000000000E+000	0.000000000000000E+000	0.000000000000000E+000	-1.42729e-10	0.000000000000000E+000	7.09602e-06	7.09602e-06	0.0000000E+000	0.0000000E+000	0.02085	0.000000000000000E+000	5.70127e-05	3.05448	131113
1	1	0	1	0	0	0	14	1.988	0.02085	2.76408	0.0208539	1.52e-06	1.15158e-05	3.13655e-08	1.15158e-05	0	-0.320451	3.13655e-08	0.000000000000000E+000	0.000000000000000E+000	0.000000000000000E+000	-2.31629e-10	0.000000000000000E+000	1.15158e-05	1.15158e-05	0.0000000E+000	0.0000000E+000	0.02085	0.000000000000000E+000	5.76419e-05	3.08453	132545
1	1	0	1	0	0	0	14	2.7998	0.02085	2.79421	0.0208539	1.59183e-06	1.62183e-05	4.44348e-08	1.62183e-05	0	-0.32047	4.44348e-08	0.000000000000000E+000	0.000000000000000E+000	0.000000000000000E+000	-3.26214e-10	0.000000000000000E+000	1.62183e-05	1.62183e-05	0.0000000E+000	0.0000000E+000	0.02085	0.000000000000000E+000	5.827e-05	3.11468	133990
1	1	0	1	0	0	0	14	3.6762	0.02085	2.82437	0.0208539	1.74591e-06	2.1295e-05	5.86973e-08	2.1295e-05	0	-0.320527	5.86973e-08	0.000000000000000E+000	0.000000000000000E+000	0.000000000000000E+000	-4.28327e-10	0.000000000000000E+000	2.1295e-05	2.1295e-05	0.0000000E+000	0.0000000E+000	0.02085	0.000000000000000E+000	5.88992e-05	3.1449	135436
1	1	0	1	0	0	0	14	4.621	0.02085	2.8545	0.0208537	1.87914e-06	2.67679e-05	7.42383e-08	2.67679e-05	0	-0.32047	7.42383e-08	0.000000000000000E+000	0.000000000000000E+000	0.000000000000000E+000	-5.38409e-10	0.000000000000000E+000	2.67679e-05	2.67679e-05	0.0000000E+000	0.0000000E+000	0.02085	0.000000000000000E+000	5.95268e-05	3.17497	136882
1	1	0	1	0	0	0	14	5.6582	0.02085	2.88491	0.0208542	2.05292e-06	3.27761e-05	9.14805e-08	3.27761e-05	0	-0.320432	9.14805e-08	0.000000000000000E+000	0.000000000000000E+000	0.000000000000000E+000	-6.59256e-10	0.000000000000000E+000	3.27761e-05	3.27761e-05	0.0000000E+000	0.0000000E+000	0.02085	0.000000000000000E+000	6.01625e-05	3.20534	138337
1	1	0	1	0	0	0	14	6.811	0.02085	2.91504	0.0208538	2.33097e-06	3.94539e-05	1.10847e-07	3.94539e-05	0	-0.32047	1.10847e-07	0.000000000000000E+000	0.000000000000000E+000	0.000000000000000E+000	-7.93573e-10	0.000000000000000E+000	3.94539e-05	3.94539e-05	0.0000000E+000	0.0000000E+000	0.02085	0.000000000000000E+000	6.07896e-05	3.23551	139784
1	1	0	1	0	0	0	14	8.1036	0.02085	2.94513	0.0208534	2.60902e-06	4.69415e-05	1.32787e-07	4.69415e-05	0	-0.32047	1.32787e-07	0.000000000000000E+000	0.000000000000000E+000	0.000000000000000E+000	-9.44178e-10	0.000000000000000E+000	4.69415e-05	4.69415e-05	0.0000000E+000	0.0000000E+000	0.02085	0.000000000000000E+000	6.1416e-05	3.2656	141230
1	1	0	1	0	0	0	14	9.6186	0.02085	2.97527	0.0208543	3.12457e-06	5.57174e-05	1.58768e-07	5.57174e-05	0	-0.320527	1.58768e-07	0.000000000000000E+000	0.000000000000000E+000	0.000000000000000E+000	-1.1207e-09	0.000000000000000E+000	5.57174e-05	5.57174e-05	0.0000000E+000	0.0000000E+000	0.02085	0.000000000000000E+000	6.20471e-05	3.2958	142670
1	1	0	1	0	0	0	14	11.4106	0.02085	3.0053	0.0208544	3.68298e-06	6.60979e-05	1.89812e-07	6.60979e-05	0	-0.320585	1.89812e-07	0.000000000000000E+000	0.000000000000000E+000	0.000000000000000E+000	-1.32949e-09	0.000000000000000E+000	6.60979e-05	6.60979e-05	0.0000000E+000	0.0000000E+000	0.02085	0.000000000000000E+000	6.26738e-05	3.32589	144109
1	1	0	1	0	0	0	14	13.6448	0.02085	3.03537	0.0208539	4.63761e-06	7.90399e-05	2.28906e-07	7.90399e-05	0	-0.320585	2.28906e-07	0.000000000000000E+000	0.000000000000000E+000	0.000000000000000E+000	-1.5898e-09	0.000000000000000E+000	7.90399e-05	7.90399e-05	0.0000000E+000	0.0000000E+000	0.02085	0.000000000000000E+000	6.32995e-05	3.35596	145554
1	1	0	1	0	0	0	14	16.5674	0.02085	3.06542	0.020853	6.18078e-06	9.59695e-05	2.80557e-07	9.59695e-05	0	-0.320642	2.80557e-07	0.000000000000000E+000	0.000000000000000E+000	0.000000000000000E+000	-1.93033e-09	0.000000000000000E+000	9.59695e-05	9.59695e-05	0.0000000E+000	0.0000000E+000	0.02085	0.000000000000000E+000	6.39234e-05	3.38607	147001
1	1	0	1	0	0	0	14	20.6706	0.02085	3.0954	0.020854	9.07828e-06	0.000119738	3.53793e-07	0.000119738	0	-0.320775	3.53793e-07	0.000000000000000E+000	0.000000000000000E+000	0.000000000000000E+000	-2.4084e-09	0.000000000000000E+000	0.000119738	0.000119738	0.0000000E+000	0.0000000E+000	0.02085	0.000000000000000E+000	6.45515e-05	3.41617	148432
1	1	0	1	0	0	0	14	27.148	0.02085	3.12532	0.0208536	1.4842e-05	0.000157259	4.70541e-07	0.000157259	0	-0.320947	4.70541e-07	0.000000000000000E+000	0.000000000000000E+000	0.000000000000000E+000	-3.16311e-09	0.000000000000000E+000	0.000157259	0.000157259	0.0000000E+000	0.0000000E+000	0.02085	0.000000000000000E+000	6.51739e-05	3.44626	149870
1	1	0	1	0	0	0	14	39.4552	0.02085	3.15529	0.0208539	2.99852e-05	0.000228551	6.94535e-07	0.000228551	0	-0.321081	6.94535e-07	0.000000000000000E+000	0.000000000000000E+000	0.000000000000000E+000	-4.59706e-09	0.000000000000000E+000	0.000228551	0.000228551	0.0000000E+000	0.0000000E+000	0.02085	0.000000000000000E+000	6.58002e-05	3.47637	151304
1	1	0	1	0	0	0	14	72.4828	0.02085	3.18515	0.0208543	9.2108e-05	0.000419869	1.30159e-06	0.000419869	0	-0.321329	1.30159e-06	0.000000000000000E+000	0.000000000000000E+000	0.000000000000000E+000	-8.44522e-09	0.000000000000000E+000	0.000419869	0.000419869	0.0000000E+000	0.0000000E+000	0.02085	0.000000000000000E+000	6.64241e-05	3.50648	152733
1	1	0	1	0	0	0	14	224.06	0.02085	3.21467	0.0208536	0.00042788	0.0012979	4.11399e-06	0.0012979	0	-0.321939	4.11399e-06	0.000000000000000E+000	0.000000000000000E+000	0.000000000000000E+000	-2.61059e-08	0.000000000000000E+000	0.0012979	0.0012979	0.0000000E+000	0.0000000E+000	0.02085	0.000000000000000E+000	6.70374e-05	3.53661	154154
1	1	0	1	0	0	0	14	493.936	0.02085	3.24481	0.0208545	0.000513558	0.00286121	9.1626e-06	0.00286121	0	-0.321939	9.1626e-06	0.000000000000000E+000	0.000000000000000E+000	0.000000000000000E+000	-5.75501e-08	0.000000000000000E+000	0.00286121	0.00286121	0.0000000E+000	0.0000000E+000	0.02085	0.000000000000000E+000	6.7669e-05	3.56675	155593
1	1	0	1	0	0	0	14	758.517	0.02085	3.2754	0.0208534	0.000526615	0.00439384	1.41591e-05	0.00439384	0	-0.321481	1.41591e-05	0.000000000000000E+000	0.000000000000000E+000	0.000000000000000E+000	-8.83774e-08	0.000000000000000E+000	0.00439384	0.00439384	0.0000000E+000	0.0000000E+000	0.02085	0.000000000000000E+000	6.83031e-05	3.59688	157068
1	1	0	1	0	0	0	14	1351.12	0.02085	3.30633	0.020854	0.00193659	0.00782659	2.54711e-05	0.00782659	0	-0.320642	2.54711e-05	0.000000000000000E+000	0.000000000000000E+000	0.000000000000000E+000	-1.57424e-07	0.000000000000000E+000	0.00782659	0.00782659	0.0000000E+000	0.0000000E+000	0.02085	0.000000000000000E+000	6.89501e-05	3.62697	158546
1	1	0	1	0	0	0	14	4951.12	0.02085	3.32375	0.0208534	0.00695123	0.0286804	9.46069e-05	0.0286804	0	-0.31965	9.46069e-05	0.000000000000000E+000	0.000000000000000E+000	0.000000000000000E+000	-5.76875e-07	0.000000000000000E+000	0.0286804	0.0286804	0.0000000E+000	0.0000000E+000	0.02085	0.000000000000000E+000	6.93115e-05	3.6434	159386
1	1	0	1	0	0	0	14	8551.12	0.02085	3.33771	0.0208532	0.00695113	0.0495339	0.000164069	0.0495339	0	-0.318906	0.000164069	0.000000000000000E+000	0.000000000000000E+000	0.000000000000000E+000	-9.96322e-07	0.000000000000000E+000	0.0495339	0.0495339	0.0000000E+000	0.0000000E+000	0.02085	0.000000000000000E+000	6.96019e-05	3.65662	160058
1	1	0	1	0	0	0	14	12151.1	0.02085	3.35175	0.0208534	0.0069512	0.0703874	0.000233816	0.0703874	0	-0.31841	0.000233816	0.000000000000000E+000	0.000000000000000E+000	0.000000000000000E+000	-1.41577e-06	0.000000000000000E+000	0.0703874	0.0703874	0.0000000E+000	0.0000000E+000	0.02085	0.000000000000000E+000	6.98954e-05	3.67016	160730
1	1	0	1	0	0	0	14	15751.1	0.02085	3.36973	0.0208537	0.00695117	0.091241	0.000303889	0.091241	0	-0.317876	0.000303889	0.000000000000000E+000	0.000000000000000E+000	0.000000000000000E+000	-1.83521e-06	0.000000000000000E+000	0.091241	0.091241	0.0000000E+000	0.0000000E+000	0.02085	0.000000000000000E+000	7.02712e-05	3.6876	161589
1	1	0	1	0	0	0	14	19351.1	0.02085	3.39197	0.0208532	0.00695117	0.112094	0.000374384	0.112094	0	-0.31759	0.000374384	0.000000000000000E+000	0.000000000000000E+000	0.000000000000000E+000	-2.25466e-06	0.000000000000000E+000	0.112094	0.112094	0.0000000E+000	0.0000000E+000	0.02085	0.000000000000000E+000	7.07334e-05	3.70956	162660
1	1	0	1	0	0	0	14	22951.1	0.02085	3.41588	0.0208531	0.00695114	0.132948	0.000445368	0.132948	0	-0.317246	0.000445368	0.000000000000000E+000	0.000000000000000E+000	0.000000000000000E+000	-2.6741e-06	0.000000000000000E+000	0.132948	0.132948	0.0000000E+000	0.0000000E+000	0.02085	0.000000000000000E+000	7.12318e-05	3.73313	163807
1	1	0	1	0	0	0	14	26551.1	0.02085	3.43906	0.0208541	0.00695112	0.153801	0.000516844	0.153801	0	-0.317055	0.000516844	0.000000000000000E+000	0.000000000000000E+000	0.000000000000000E+000	-3.09355e-06	0.000000000000000E+000	0.153801	0.153801	0.0000000E+000	0.0000000E+000	0.02085	0.000000000000000E+000	7.17187e-05	3.75612	164910
1	1	0	1	0	0	0	14	30151.1	0.02085	3.4632	0.0208529	0.0069511	0.174655	0.000588806	0.174655	0	-0.316846	0.000588806	0.000000000000000E+000	0.000000000000000E+000	0.000000000000000E+000	-3.51299e-06	0.000000000000000E+000	0.174655	0.174655	0.0000000E+000	0.0000000E+000	0.02085	0.000000000000000E+000	7.22178e-05	3.78005	166077
1	1	0	1	0	0	0	14	33585.5	0.02085	3.49232	0.0208538	0.00623865	0.194549	0.000657974	0.194549	0	-0.316846	0.000657974	0.000000000000000E+000	0.000000000000000E+000	0.000000000000000E+000	-3.91314e-06	0.000000000000000E+000	0.194549	0.194549	0.0000000E+000	0.0000000E+000	0.02085	0.000000000000000E+000	7.28281e-05	3.80916	167467
1	1	0	1	0	0	0	14	36162.9	0.02085	3.52248	0.0208534	0.0045201	0.209478	0.000710324	0.209478	0	-0.316731	0.000710324	0.000000000000000E+000	0.000000000000000E+000	0.000000000000000E+000	-4.21343e-06	0.000000000000000E+000	0.209478	0.209478	0.0000000E+000	0.0000000E+000	0.02085	0.000000000000000E+000	7.34558e-05	3.83921	168916
1	1	0	1	0	0	0	14	38223.9	0.02085	3.55263	0.0208544	0.00379695	0.221417	0.00075255	0.221417	0	-0.31675	0.00075255	0.000000000000000E+000	0.000000000000000E+000	0.000000000000000E+000	-4.45356e-06	0.000000000000000E+000	0.221417	0.221417	0.0000000E+000	0.0000000E+000	0.02085	0.000000000000000E+000	7.40878e-05	3.86938	170354
1	1	0	1	0	0	0	14	40083.9	0.02085	3.58285	0.020854	0.00357611	0.232191	0.000790985	0.232191	0	-0.316598	0.000790985	0.000000000000000E+000	0.000000000000000E+000	0.000000000000000E+000	-4.67027e-06	0.000000000000000E+000	0.232191	0.232191	0.0000000E+000	0.0000000E+000	0.02085	0.000000000000000E+000	7.47167e-05	3.89945	171806
1	1	0	1	0	0	0	14	41926.5	0.02085	3.61301	0.0208531	0.00358712	0.242864	0.000829387	0.242864	0	-0.316617	0.000829387	0.000000000000000E+000	0.000000000000000E+000	0.000000000000000E+000	-4.88496e-06	0.000000000000000E+000	0.242864	0.242864	0.0000000E+000	0.0000000E+000	0.02085	0.000000000000000E+000	7.53426e-05	3.92963	173260
1	1	0	1	0	0	0	14	43835.3	0.02085	3.64322	0.0208538	0.0037785	0.253921	0.000869501	0.253921	0	-0.316502	0.000869501	0.000000000000000E+000	0.000000000000000E+000	0.000000000000000E+000	-5.10735e-06	0.000000000000000E+000	0.253921	0.253921	0.0000000E+000	0.0000000E+000	0.02085	0.000000000000000E+000	7.5975e-05	3.95972	174703
1	1	0	1	0	0	0	14	45867.2	0.02085	3.67342	0.0208533	0.00397221	0.265691	0.000912557	0.265691	0	-0.316369	0.000912557	0.000000000000000E+000	0.000000000000000E+000	0.000000000000000E+000	-5.34409e-06	0.000000000000000E+000	0.265691	0.265691	0.0000000E+000	0.0000000E+000	0.02085	0.000000000000000E+000	7.66029e-05	3.98979	176155
1	1	0	1	0	0	0	14	47986.3	0.02085	3.70364	0.0208532	0.00411978	0.277966	0.000957832	0.277966	0	-0.316254	0.000957832	0.000000000000000E+000	0.000000000000000E+000	0.000000000000000E+000	-5.59099e-06	0.000000000000000E+000	0.277966	0.277966	0.0000000E+000	0.0000000E+000	0.02085	0.000000000000000E+000	7.72327e-05	4.0199	177606
1	1	0	1	0	0	0	14	50073.5	0.02085	3.73398	0.0208537	0.00396572	0.290056	0.00100279	0.290056	0	-0.316063	0.00100279	0.000000000000000E+000	0.000000000000000E+000	0.000000000000000E+000	-5.83416e-06	0.000000000000000E+000	0.290056	0.290056	0.0000000E+000	0.0000000E+000	0.02085	0.000000000000000E+000	7.78672e-05	4.05004	179056
1	1	0	1	0	0	0	14	52046.4	0.02085	3.76411	0.0208531	0.00370804	0.301484	0.00104563	0.301484	0	-0.316044	0.00104563	0.000000000000000E+000	0.000000000000000E+000	0.000000000000000E+000	-6.06403e-06	0.000000000000000E+000	0.301484	0.301484	0.0000000E+000	0.0000000E+000	0.02085	0.000000000000000E+000	7.84933e-05	4.08015	180506
1	1	0	1	0	0	0	14	53936.4	0.02085	3.79446	0.0208536	0.00361765	0.312432	0.001087	0.312432	0	-0.315796	0.001087	0.000000000000000E+000	0.000000000000000E+000	0.000000000000000E+000	-6.28423e-06	0.000000000000000E+000	0.312432	0.312432	0.0000000E+000	0.0000000E+000	0.02085	0.000000000000000E+000	7.91283e-05	4.11026	181957
1	1	0	1	0	0	0	14	55820.4	0.02085	3.82457	0.0208529	0.0036713	0.323345	0.00112857	0.323345	0	-0.315777	0.00112857	0.000000000000000E+000	0.000000000000000E+000	0.000000000000000E+000	-6.50374e-06	0.000000000000000E+000	0.323345	0.323345	0.0000000E+000	0.0000000E+000	0.02085	0.000000000000000E+000	7.97535e-05	4.14035	183407
1	1	0	1	0	0	0	14	57874.9	0.02085	3.85485	0.0208537	0.00413763	0.335246	0.00117427	0.335246	0	-0.315644	0.00117427	0.000000000000000E+000	0.000000000000000E+000	0.000000000000000E+000	-6.74311e-06	0.000000000000000E+000	0.335246	0.335246	0.0000000E+000	0.0000000E+000	0.02085	0.000000000000000E+000	8.03878e-05	4.17049	184852
1	1	0	1	0	0	0	14	60524.3	0.02085	3.88475	0.0208532	0.00588895	0.350592	0.00123367	0.350592	0	-0.315281	0.00123367	0.000000000000000E+000	0.000000000000000E+000	0.000000000000000E+000	-7.05179e-06	0.000000000000000E+000	0.350592	0.350592	0.0000000E+000	0.0000000E+000	0.02085	0.000000000000000E+000	8.10096e-05	4.20003	186290
1	0	0	0	0	0	1	14	60527.5	-0.02085	3.87805	-0.0208505	-1.87156e-05	0.350573	0.00123374	-1.87156e-05	1	-0.312687	0.00123367	7.25913e-08	0.000000000000000E+000	0.000000000000000E+000	-7.05141e-06	1.87156e-05	0.000000000000000E+000	1.87156e-05	0.0000000E+000	0.0000000E+000	-0.02085	0.000000000000000E+000	-8.08592e-05	4.19074	185994
1	0	0	0	0	0	1	14	61710.9	-0.02085	3.8485	-0.0208505	-0.00240813	0.343719	0.00126022	-0.00687265	1	-0.312172	0.00123367	2.65476e-05	0.000000000000000E+000	0.000000000000000E+000	-6.91355e-06	0.00687265	0.000000000000000E+000	0.00687265	0.0000000E+000	0.0000000E+000	-0.02085	0.000000000000000E+000	-8.0243e-05	4.16067	184576
1	0	0	0	0	0	1	14	62883.4	-0.02085	3.81824	-0.0208505	-0.00221214	0.336928	0.00128626	-0.013664	1	-0.312305	0.00123367	5.25839e-05	0.000000000000000E+000	0.000000000000000E+000	-6.77695e-06	0.013664	0.000000000000000E+000	0.013664	0.0000000E+000	0.0000000E+000	-0.02085	0.000000000000000E+000	-7.9612e-05	4.13054	183125
1	0	0	0	0	0	1	14	64023.9	-0.02085	3.78819	-0.0208509	-0.00222761	0.330323	0.00131138	-0.0202696	1	-0.312267	0.00123367	7.77081e-05	0.000000000000000E+000	0.000000000000000E+000	-6.64408e-06	0.0202696	0.000000000000000E+000	0.0202696	0.0000000E+000	0.0000000E+000	-0.02085	0.000000000000000E+000	-7.89871e-05	4.10045	181680
1	0	0	0	0	0	1	14	65213.1	-0.02085	3.75827	-0.0208507	-0.00236676	0.323435	0.00133737	-0.0271574	1	-0.312076	0.00123367	0.000103697	0.000000000000000E+000	0.000000000000000E+000	-6.50554e-06	0.0271574	0.000000000000000E+000	0.0271574	0.0000000E+000	0.0000000E+000	-0.02085	0.000000000000000E+000	-7.83626e-05	4.07035	180246
1	0	0	0	0	0	1	14	66529.4	-0.02085	3.7282	-0.0208507	-0.00265322	0.315811	0.0013659	-0.0347809	1	-0.312	0.00123367	0.000132233	0.000000000000000E+000	0.000000000000000E+000	-6.35221e-06	0.0347809	0.000000000000000E+000	0.0347809	0.0000000E+000	0.0000000E+000	-0.02085	0.000000000000000E+000	-7.77356e-05	4.0402	178804
1	0	0	0	0	0	1	14	67998	-0.02085	3.69811	-0.0208509	-0.00290947	0.307305	0.00139749	-0.0432869	1	-0.312019	0.00123367	0.000163817	0.000000000000000E+000	0.000000000000000E+000	-6.18112e-06	0.0432869	0.000000000000000E+000	0.0432869	0.0000000E+000	0.0000000E+000	-0.02085	0.000000000000000E+000	-7.7109e-05	4.01013	177360
1	0	0	0	0	0	1	14	69556.8	-0.02085	3.66795	-0.0208501	-0.00303834	0.298277	0.00143074	-0.052315	1	-0.312038	0.00123367	0.000197069	0.000000000000000E+000	0.000000000000000E+000	-5.99953e-06	0.052315	0.000000000000000E+000	0.052315	0.0000000E+000	0.0000000E+000	-0.02085	0.000000000000000E+000	-7.64772e-05	3.97998	175919
1	0	0	0	0	0	1	14	71110.9	-0.02085	3.63797	-0.0208511	-0.00296419	0.289276	0.00146362	-0.0613161	1	-0.311886	0.00123367	0.000229953	0.000000000000000E+000	0.000000000000000E+000	-5.81848e-06	0.0613161	0.000000000000000E+000	0.0613161	0.0000000E+000	0.0000000E+000	-0.02085	0.000000000000000E+000	-7.58557e-05	3.94986	174474
1	0	0	0	0	0	1	14	72600.4	-0.02085	3.60784	-0.0208512	-0.00283673	0.280649	0.00149488	-0.0699432	1	-0.311867	0.00123367	0.000261211	0.000000000000000E+000	0.000000000000000E+000	-5.64495e-06	0.0699432	0.000000000000000E+000	0.0699432	0.0000000E+000	0.0000000E+000	-0.02085	0.000000000000000E+000	-7.5228e-05	3.91971	173028
1	0	0	0	0	0	1	14	74058.9	-0.02085	3.57781	-0.0208505	-0.0028182	0.272202	0.00152523	-0.0783905	1	-0.311828	0.00123367	0.000291563	0.000000000000000E+000	0.000000000000000E+000	-5.47505e-06	0.0783905	0.000000000000000E+000	0.0783905	0.0000000E+000	0.0000000E+000	-0.02085	0.000000000000000E+000	-7.45991e-05	3.88964	171594
1	0	0	0	0	0	1	14	75553.6	-0.02085	3.54778	-0.0208502	-0.00295954	0.263545	0.00155608	-0.0870474	1	-0.311733	0.00123367	0.000322407	0.000000000000000E+000	0.000000000000000E+000	-5.30092e-06	0.0870474	0.000000000000000E+000	0.0870474	0.0000000E+000	0.0000000E+000	-0.02085	0.000000000000000E+000	-7.3972e-05	3.85951	170156
1	0	0	0	0	0	1	14	77208.5	-0.02085	3.51762	-0.0208512	-0.00337377	0.25396	0.00158994	-0.0966323	1	-0.31179	0.00123367	0.000356266	0.000000000000000E+000	0.000000000000000E+000	-5.10813e-06	0.0966323	0.000000000000000E+000	0.0966323	0.0000000E+000	0.0000000E+000	-0.02085	0.000000000000000E+000	-7.33464e-05	3.82941	168701
1	0	0	0	0	0	1	14	79244.9	-0.02085	3.48766	-0.0208502	-0.00431386	0.242165	0.00163124	-0.108427	1	-0.311619	0.00123367	0.000397573	0.000000000000000E+000	0.000000000000000E+000	-4.87089e-06	0.108427	0.000000000000000E+000	0.108427	0.0000000E+000	0.0000000E+000	-0.02085	0.000000000000000E+000	-7.27185e-05	3.79928	167272
1	0	0	0	0	0	1	14	82028.6	-0.02085	3.45759	-0.0208503	-0.00594285	0.226042	0.00168722	-0.12455	1	-0.311561	0.00123367	0.000453552	0.000000000000000E+000	0.000000000000000E+000	-4.5466e-06	0.12455	0.000000000000000E+000	0.12455	0.0000000E+000	0.0000000E+000	-0.02085	0.000000000000000E+000	-7.20917e-05	3.76915	165830
1	0	0	0	0	0	1	14	85533.8	-0.02085	3.42821	-0.020851	-0.0068237	0.205741	0.00175712	-0.144851	1	-0.311542	0.00123367	0.000523444	0.000000000000000E+000	0.000000000000000E+000	-4.13826e-06	0.144851	0.000000000000000E+000	0.144851	0.0000000E+000	0.0000000E+000	-0.02085	0.000000000000000E+000	-7.14815e-05	3.73975	164415
1	0	0	0	0	0	1	14	89058.8	-0.02085	3.39886	-0.0208505	-0.00661767	0.185325	0.00182682	-0.165267	1	-0.311447	0.00123367	0.000593147	0.000000000000000E+000	0.000000000000000E+000	-3.72761e-06	0.165267	0.000000000000000E+000	0.165267	0.0000000E+000	0.0000000E+000	-0.02085	0.000000000000000E+000	-7.08681e-05	3.71031	163011
1	0	0	0	0	0	1	14	92049.3	-0.02085	3.36877	-0.0208505	-0.00533091	0.168005	0.00188544	-0.182587	1	-0.311485	0.00123367	0.000651767	0.000000000000000E+000	0.000000000000000E+000	-3.37924e-06	0.182587	0.000000000000000E+000	0.182587	0.0000000E+000	0.0000000E+000	-0.02085	0.000000000000000E+000	-7.02405e-05	3.68026	161568
1	0	0	0	0	0	1	14	94492.5	-0.02085	3.33853	-0.020851	-0.00447812	0.153854	0.00193291	-0.196738	1	-0.311542	0.00123367	0.000699234	0.000000000000000E+000	0.000000000000000E+000	-3.09461e-06	0.196738	0.000000000000000E+000	0.196738	0.0000000E+000	0.0000000E+000	-0.02085	0.000000000000000E+000	-6.96119e-05	3.65008	160114
1	0	0	0	0	0	1	14	96580.6	-0.02085	3.30848	-0.0208503	-0.00381237	0.14176	0.00197311	-0.208832	1	-0.311485	0.00123367	0.000739436	0.000000000000000E+000	0.000000000000000E+000	-2.85135e-06	0.208832	0.000000000000000E+000	0.208832	0.0000000E+000	0.0000000E+000	-0.02085	0.000000000000000E+000	-6.8983e-05	3.61997	158678
1	0	0	0	0	0	1	14	98249.7	-0.02085	3.27849	-0.0208507	-0.00283364	0.132093	0.00200496	-0.218499	1	-0.311409	0.00123367	0.000771283	0.000000000000000E+000	0.000000000000000E+000	-2.65691e-06	0.218499	0.000000000000000E+000	0.218499	0.0000000E+000	0.0000000E+000	-0.02085	0.000000000000000E+000	-6.83586e-05	3.5899	157237
1	0	0	0	0	0	1	14	99387.3	-0.02085	3.2485	-0.0208504	-0.0018979	0.125504	0.00202647	-0.225088	1	-0.311351	0.00123367	0.000792794	0.000000000000000E+000	0.000000000000000E+000	-2.52439e-06	0.225088	0.000000000000000E+000	0.225088	0.0000000E+000	0.0000000E+000	-0.02085	0.000000000000000E+000	-6.77324e-05	3.55985	155800
1	0	0	0	0	0	1	14	100130	-0.02085	3.21837	-0.0208501	-0.00122732	0.121203	0.00204038	-0.229389	1	-0.311409	0.00123367	0.000806708	0.000000000000000E+000	0.000000000000000E+000	-2.43786e-06	0.229389	0.000000000000000E+000	0.229389	0.0000000E+000	0.0000000E+000	-0.02085	0.000000000000000E+000	-6.71035e-05	3.52978	154357
1	0	0	0	0	0	1	14	100636	-0.02085	3.18822	-0.0208505	-0.000876411	0.118272	0.00204977	-0.23232	1	-0.311428	0.00123367	0.000816098	0.000000000000000E+000	0.000000000000000E+000	-2.37892e-06	0.23232	0.000000000000000E+000	0.23232	0.0000000E+000	0.0000000E+000	-0.02085	0.000000000000000E+000	-6.64761e-05	3.49965	152908
1	0	0	0	0	0	1	14	101022	-0.02085	3.15815	-0.0208502	-0.000693382	0.116038	0.00205686	-0.234554	1	-0.31139	0.00123367	0.000823191	0.000000000000000E+000	0.000000000000000E+000	-2.33397e-06	0.234554	0.000000000000000E+000	0.234554	0.0000000E+000	0.0000000E+000	-0.02085	0.000000000000000E+000	-6.58482e-05	3.46954	151469
1	0	0	0	0	0	1	14	101342	-0.02085	3.12803	-0.0208502	-0.000583162	0.114181	0.0020627	-0.236411	1	-0.311466	0.00123367	0.000829027	0.000000000000000E+000	0.000000000000000E+000	-2.29664e-06	0.236411	0.000000000000000E+000	0.236411	0.0000000E+000	0.0000000E+000	-0.02085	0.000000000000000E+000	-6.522e-05	3.43949	150024
1	0	0	0	0	0	1	14	101609	-0.02085	3.09807	-0.020851	-0.000483917	0.112638	0.0020675	-0.237954	1	-0.311351	0.00123367	0.000833832	0.000000000000000E+000	0.000000000000000E+000	-2.26559e-06	0.237954	0.000000000000000E+000	0.237954	0.0000000E+000	0.0000000E+000	-0.02085	0.000000000000000E+000	-6.45978e-05	3.40942	148582
1	0	0	0	0	0	1	14	101830	-0.02085	3.06781	-0.0208505	-0.000400031	0.111357	0.00207146	-0.239236	1	-0.311485	0.00123367	0.000837784	0.000000000000000E+000	0.000000000000000E+000	-2.23982e-06	0.239236	0.000000000000000E+000	0.239236	0.0000000E+000	0.0000000E+000	-0.02085	0.000000000000000E+000	-6.39653e-05	3.3793	147134
1	0	0	0	0	0	1	14	102011	-0.02085	3.03782	-0.0208507	-0.00032977	0.110306	0.00207466	-0.240286	1	-0.311428	0.00123367	0.000840991	0.000000000000000E+000	0.000000000000000E+000	-2.21869e-06	0.240286	0.000000000000000E+000	0.240286	0.0000000E+000	0.0000000E+000	-0.02085	0.000000000000000E+000	-6.33405e-05	3.34924	145694
1	0	0	0	0	0	1	14	102162	-0.02085	3.00773	-0.0208508	-0.000273753	0.109436	0.00207729	-0.241156	1	-0.311371	0.00123367	0.000843622	0.000000000000000E+000	0.000000000000000E+000	-2.20119e-06	0.241156	0.000000000000000E+000	0.241156	0.0000000E+000	0.0000000E+000	-0.02085	0.000000000000000E+000	-6.27137e-05	3.3191	144250
1	0	0	0	0	0	1	14	102288	-0.02085	2.97752	-0.0208507	-0.000231275	0.108704	0.00207948	-0.241888	1	-0.311485	0.00123367	0.000845813	0.000000000000000E+000	0.000000000000000E+000	-2.18646e-06	0.241888	0.000000000000000E+000	0.241888	0.0000000E+000	0.0000000E+000	-0.02085	0.000000000000000E+000	-6.20833e-05	3.28901	142802
1	0	0	0	0	0	1	14	102395	-0.02085	2.94751	-0.0208504	-0.000197155	0.108084	0.00208132	-0.242508	1	-0.311409	0.00123367	0.00084765	0.000000000000000E+000	0.000000000000000E+000	-2.17399e-06	0.242508	0.000000000000000E+000	0.242508	0.0000000E+000	0.0000000E+000	-0.02085	0.000000000000000E+000	-6.14568e-05	3.25892	141365
1	0	0	0	0	0	1	14	102488	-0.02085	2.91735	-0.0208502	-0.000169121	0.107547	0.0020829	-0.243045	1	-0.311428	0.00123367	0.000849226	0.000000000000000E+000	0.000000000000000E+000	-2.16319e-06	0.243045	0.000000000000000E+000	0.243045	0.0000000E+000	0.0000000E+000	-0.02085	0.000000000000000E+000	-6.08273e-05	3.22878	139919
1	0	0	0	0	0	1	14	102570	-0.02085	2.88711	-0.0208503	-0.000150919	0.107073	0.00208427	-0.243519	1	-0.311428	0.00123367	0.000850601	0.000000000000000E+000	0.000000000000000E+000	-2.15366e-06	0.243519	0.000000000000000E+000	0.243519	0.0000000E+000	0.0000000E+000	-0.02085	0.000000000000000E+000	-6.01971e-05	3.19853	138468
1	0	0	0	0	0	1	14	102642	-0.02085	2.85696	-0.020851	-0.000135413	0.106652	0.00208548	-0.24394	1	-0.311447	0.00123367	0.00085181	0.000000000000000E+000	0.000000000000000E+000	-2.1452e-06	0.24394	0.000000000000000E+000	0.24394	0.0000000E+000	0.0000000E+000	-0.02085	0.000000000000000E+000	-5.95706e-05	3.16841	137018
1	0	0	0	0	0	1	14	102708	-0.02085	2.82678	-0.0208506	-0.000123809	0.10627	0.00208657	-0.244322	1	-0.311466	0.00123367	0.000852896	0.000000000000000E+000	0.000000000000000E+000	-2.13751e-06	0.244322	0.000000000000000E+000	0.244322	0.0000000E+000	0.0000000E+000	-0.02085	0.000000000000000E+000	-5.89399e-05	3.13824	135573
1	0	0	0	0	0	1	14	102769	-0.02085	2.79682	-0.0208508	-0.000114403	0.10592	0.00208755	-0.244672	1	-0.311351	0.00123367	0.00085388	0.000000000000000E+000	0.000000000000000E+000	-2.13047e-06	0.244672	0.000000000000000E+000	0.244672	0.0000000E+000	0.0000000E+000	-0.02085	0.000000000000000E+000	-5.83159e-05	3.10817	134135
1	0	0	0	0	0	1	14	102825	-0.02085	2.76667	-0.0208505	-0.000106754	0.105593	0.00208846	-0.244999	1	-0.311409	0.00123367	0.00085479	0.000000000000000E+000	0.000000000000000E+000	-2.12389e-06	0.244999	0.000000000000000E+000	0.244999	0.0000000E+000	0.0000000E+000	-0.02085	0.000000000000000E+000	-5.76864e-05	3.07808	132691
1	0	0	0	0	0	1	14	102879	-0.02085	2.73666	-0.0208509	-0.000101016	0.105283	0.00208932	-0.245309	1	-0.311351	0.00123367	0.000855644	0.000000000000000E+000	0.000000000000000E+000	-2.11765e-06	0.245309	0.000000000000000E+000	0.245309	0.0000000E+000	0.0000000E+000	-0.02085	0.000000000000000E+000	-5.70619e-05	3.04801	131249
1	0	0	0	0	0	1	14	102930	-0.02085	2.70642	-0.020851	-9.72163e-05	0.104985	0.00209013	-0.245607	1	-0.31139	0.00123367	0.000856454	0.000000000000000E+000	0.000000000000000E+000	-2.11166e-06	0.245607	0.000000000000000E+000	0.245607	0.0000000E+000	0.0000000E+000	-0.02085	0.000000000000000E+000	-5.64315e-05	3.01781	129798
1	0	0	0	0	0	1	14	102960	-0.02085	2.68852	-0.0208507	-1.15837e-09	0.104812	0.00209059	-0.24578	1	-0.311561	0.00123367	0.00085692	0.000000000000000E+000	0.000000000000000E+000	-2.10819e-06	0.24578	0.000000000000000E+000	0.24578	0.0000000E+000	0.0000000E+000	-0.02085	0.000000000000000E+000	-5.60575e-05	3.00008	128942
1	1	0	1	0	0	2	14	102960	0.02085	2.71043	0.0208546	8.94415e-07	0.104814	0.0020906	1.69498e-06	2	-0.313335	4.5774e-09	0.000000000000000E+000	0.000000000000000E+000	0.000000000000000E+000	-2.10822e-06	0.000000000000000E+000	1.69498e-06	1.69498e-06	0.0000000E+000	0.0000000E+000	0.02085	1	5.65248e-05	3.02376	129968
1	1	0	1	0	0	2	14	102961	0.02085	2.74055	0.0208538	1.06473e-06	0.104817	0.0020906	4.73508e-06	2	-0.313431	1.2864e-08	0.000000000000000E+000	0.000000000000000E+000	0.000000000000000E+000	-2.10828e-06	0.000000000000000E+000	4.73508e-06	4.73508e-06	0.0000000E+000	0.0000000E+000	0.02085	1	5.7151e-05	3.05398	131417
1	1	0	1	0	0	2	14	102961	0.02085	2.7706	0.0208544	1.19564e-06	0.10482	0.00209061	8.1992e-06	2	-0.313526	2.24103e-08	0.000000000000000E+000	0.000000000000000E+000	0.000000000000000E+000	-2.10835e-06	0.000000000000000E+000	8.1992e-06	8.1992e-06	0.0000000E+000	0.0000000E+000	0.02085	1	5.77792e-05	3.08413	132855
1	1	0	1	0	0	2	14	102962	0.02085	2.80065	0.0208546	1.34047e-06	0.104824	0.00209063	1.20758e-05	2	-0.31366	3.32097e-08	0.000000000000000E+000	0.000000000000000E+000	0.000000000000000E+000	-2.10843e-06	0.000000000000000E+000	1.20758e-05	1.20758e-05	0.0000000E+000	0.0000000E+000	0.02085	1	5.84064e-05	3.11431	134294
1	1	0	1	0	0	2	14	102963	0.02085	2.83095	0.0208546	1.49571e-06	0.104829	0.00209064	1.63799e-05	2	-0.31366	4.533e-08	0.000000000000000E+000	0.000000000000000E+000	0.000000000000000E+000	-2.10852e-06	0.000000000000000E+000	1.63799e-05	1.63799e-05	0.0000000E+000	0.0000000E+000	0.02085	1	5.90383e-05	3.14461	135747
1	1	0	1	0	0	2	14	102964	0.02085	2.86112	0.0208537	1.62431e-06	0.104833	0.00209065	2.11138e-05	2	-0.313679	5.88036e-08	0.000000000000000E+000	0.000000000000000E+000	0.000000000000000E+000	-2.10861e-06	0.000000000000000E+000	2.11138e-05	2.11138e-05	0.0000000E+000	0.0000000E+000	0.02085	1	5.9665e-05	3.1748	137199
1	1	0	1	0	0	2	14	102964	0.02085	2.89128	0.0208539	1.7784e-06	0.104839	0.00209067	2.63215e-05	2	-0.313622	7.37828e-08	0.000000000000000E+000	0.000000000000000E+000	0.000000000000000E+000	-2.10872e-06	0.000000000000000E+000	2.63215e-05	2.63215e-05	0.0000000E+000	0.0000000E+000	0.02085	1	6.02946e-05	3.2049	138644
1	1	0	1	0	0	2	14	102965	0.02085	2.92133	0.0208547	1.96841e-06	0.104844	0.00209068	3.20368e-05	2	-0.313641	9.03935e-08	0.000000000000000E+000	0.000000000000000E+000	0.000000000000000E+000	-2.10883e-06	0.000000000000000E+000	3.20368e-05	3.20368e-05	0.0000000E+000	0.0000000E+000	0.02085	1	6.09235e-05	3.23497	140080
1	1	0	1	0	0	2	14	102967	0.02085	2.95154	0.0208541	2.16305e-06	0.104851	0.0020907	3.83197e-05	2	-0.313736	1.08843e-07	0.000000000000000E+000	0.000000000000000E+000	0.000000000000000E+000	-2.10896e-06	0.000000000000000E+000	3.83197e-05	3.83197e-05	0.0000000E+000	0.0000000E+000	0.02085	1	6.15517e-05	3.26527	141533
1	1	0	1	0	0	2	14	102968	0.02085	2.98163	0.0208548	2.36e-06	0.104858	0.00209072	4.52259e-05	2	-0.313736	1.29332e-07	0.000000000000000E+000	0.000000000000000E+000	0.000000000000000E+000	-2.1091e-06	0.000000000000000E+000	4.52259e-05	4.52259e-05	0.0000000E+000	0.0000000E+000	0.02085	1	6.21813e-05	3.29536	142971
1	1	0	1	0	0	2	14	102969	0.02085	3.01177	0.0208542	2.62416e-06	0.104865	0.00209074	5.27948e-05	2	-0.313679	1.52015e-07	0.000000000000000E+000	0.000000000000000E+000	0.000000000000000E+000	-2.10925e-06	0.000000000000000E+000	5.27948e-05	5.27948e-05	0.0000000E+000	0.0000000E+000	0.02085	1	6.28081e-05	3.32545	144420
1	1	0	1	0	0	2	14	102970	0.02085	3.0418	0.0208544	2.86862e-06	0.104873	0.00209077	6.10485e-05	2	-0.313755	1.76998e-07	0.000000000000000E+000	0.000000000000000E+000	0.000000000000000E+000	-2.10942e-06	0.000000000000000E+000	6.10485e-05	6.10485e-05	0.0000000E+000	0.0000000E+000	0.02085	1	6.34349e-05	3.35556	145859
1	1	0	1	0	0	2	14	102972	0.02085	3.07189	0.0208543	3.13045e-06	0.104882	0.0020908	7.01409e-05	2	-0.313851	2.04793e-07	0.000000000000000E+000	0.000000000000000E+000	0.000000000000000E+000	-2.1096e-06	0.000000000000000E+000	7.01409e-05	7.01409e-05	0.0000000E+000	0.0000000E+000	0.02085	1	6.40622e-05	3.38574	147302
1	1	0	1	0	0	2	14	102974	0.02085	3.10202	0.0208544	3.52784e-06	0.104893	0.00209083	8.02854e-05	2	-0.313831	2.36111e-07	0.000000000000000E+000	0.000000000000000E+000	0.000000000000000E+000	-2.1098e-06	0.000000000000000E+000	8.02854e-05	8.02854e-05	0.0000000E+000	0.0000000E+000	0.02085	1	6.46909e-05	3.41585	148746
1	1	0	1	0	0	2	14	102976	0.02085	3.13213	0.0208543	3.94029e-06	0.104904	0.00209086	9.1571e-05	2	-0.313793	2.71292e-07	0.000000000000000E+000	0.000000000000000E+000	0.000000000000000E+000	-2.11003e-06	0.000000000000000E+000	9.1571e-05	9.1571e-05	0.0000000E+000	0.0000000E+000	0.02085	1	6.53184e-05	3.44592	150191
1	1	0	1	0	0	2	14	102978	0.02085	3.16212	0.0208541	4.55201e-06	0.104917	0.0020909	0.00010455	2	-0.313908	3.12143e-07	0.000000000000000E+000	0.000000000000000E+000	0.000000000000000E+000	-2.11029e-06	0.000000000000000E+000	0.00010455	0.00010455	0.0000000E+000	0.0000000E+000	0.02085	1	6.59433e-05	3.47603	151630
1	1	0	1	0	0	2	14	102981	0.02085	3.19229	0.0208538	5.98864e-06	0.104933	0.00209096	0.000120813	2	-0.313889	3.63823e-07	0.000000000000000E+000	0.000000000000000E+000	0.000000000000000E+000	-2.11062e-06	0.000000000000000E+000	0.000120813	0.000120813	0.0000000E+000	0.0000000E+000	0.02085	1	6.65713e-05	3.50617	153079
1	1	0	1	0	0	2	14	102985	0.02085	3.22234	0.0208539	9.95096e-06	0.104958	0.00209103	0.000145381	2	-0.314003	4.42652e-07	0.000000000000000E+000	0.000000000000000E+000	0.000000000000000E+000	-2.11111e-06	0.000000000000000E+000	0.000145381	0.000145381	0.0000000E+000	0.0000000E+000	0.02085	1	6.71984e-05	3.53634	154519
1	1	0	1	0	0	2	14	102997	0.02085	3.25239	0.0208545	3.66849e-05	0.105028	0.00209126	0.000216207	2	-0.314099	6.72199e-07	0.000000000000000E+000	0.000000000000000E+000	0.000000000000000E+000	-2.11254e-06	0.000000000000000E+000	0.000216207	0.000216207	0.0000000E+000	0.0000000E+000	0.02085	1	6.78269e-05	3.56649	155956
1	1	0	1	0	0	2	14	103115	0.02085	3.28232	0.0208544	0.000425411	0.105711	0.0020935	0.000898985	2	-0.31427	2.90687e-06	0.000000000000000E+000	0.000000000000000E+000	0.000000000000000E+000	-2.12627e-06	0.000000000000000E+000	0.000898985	0.000898985	0.0000000E+000	0.0000000E+000	0.02085	1	6.8451e-05	3.59659	157392
1	1	0	1	0	0	2	14	104838	0.02085	3.31237	0.0208548	0.00593214	0.11569	0.00212645	0.0108779	2	-0.314385	3.58624e-05	0.000000000000000E+000	0.000000000000000E+000	0.000000000000000E+000	-2.32698e-06	0.000000000000000E+000	0.0108779	0.0108779	0.0000000E+000	0.0000000E+000	0.02085	1	6.90788e-05	3.62676	158831
1	1	0	1	0	0	2	14	108303	0.02085	3.34149	0.0208548	0.00655556	0.135763	0.00219322	0.030951	2	-0.314385	0.000102631	0.000000000000000E+000	0.000000000000000E+000	0.000000000000000E+000	-2.73073e-06	0.000000000000000E+000	0.030951	0.030951	0.0000000E+000	0.0000000E+000	0.02085	1	6.96862e-05	3.65587	160226
1	1	0	1	0	0	2	14	111286	0.02085	3.3716	0.0208542	0.00560572	0.153046	0.00225123	0.0482341	2	-0.314366	0.000160633	0.000000000000000E+000	0.000000000000000E+000	0.000000000000000E+000	-3.07836e-06	0.000000000000000E+000	0.0482341	0.0482341	0.0000000E+000	0.0000000E+000	0.02085	1	7.03119e-05	3.68596	161675
1	1	0	1	0	0	2	14	114383	0.02085	3.40163	0.0208541	0.00633924	0.170986	0.00231198	0.0661736	2	-0.314385	0.000221391	0.000000000000000E+000	0.000000000000000E+000	0.000000000000000E+000	-3.4392e-06	0.000000000000000E+000	0.0661736	0.0661736	0.0000000E+000	0.0000000E+000	0.02085	1	7.0938e-05	3.71601	163115
1	1	0	1	0	0	2	14	117954	0.02085	3.43027	0.0208539	0.00695146	0.191671	0.00238265	0.086859	2	-0.314289	0.000292056	0.000000000000000E+000	0.000000000000000E+000	0.000000000000000E+000	-3.85526e-06	0.000000000000000E+000	0.086859	0.086859	0.0000000E+000	0.0000000E+000	0.02085	1	7.15346e-05	3.74456	164490
1	1	0	1	0	0	2	14	121554	0.02085	3.45751	0.0208539	0.00695146	0.212526	0.00245447	0.107713	2	-0.314289	0.000363874	0.000000000000000E+000	0.000000000000000E+000	0.000000000000000E+000	-4.27473e-06	0.000000000000000E+000	0.107713	0.107713	0.0000000E+000	0.0000000E+000	0.02085	1	7.21028e-05	3.7718	165797
1	1	0	1	0	0	2	14	124788	0.02085	3.48755	0.0208549	0.00573678	0.231262	0.00251951	0.12645	2	-0.314385	0.00042892	0.000000000000000E+000	0.000000000000000E+000	0.000000000000000E+000	-4.65159e-06	0.000000000000000E+000	0.12645	0.12645	0.0000000E+000	0.0000000E+000	0.02085	1	7.27324e-05	3.80193	167229
1	1	0	1	0	0	2	14	127197	0.02085	3.51748	0.0208538	0.0042562	0.245217	0.00256837	0.140405	2	-0.314595	0.000477783	0.000000000000000E+000	0.000000000000000E+000	0.000000000000000E+000	-4.93228e-06	0.000000000000000E+000	0.140405	0.140405	0.0000000E+000	0.0000000E+000	0.02085	1	7.33529e-05	3.83208	168673
1	1	0	1	0	0	2	14	129086	0.02085	3.54748	0.0208543	0.00345312	0.256159	0.00260702	0.151347	2	-0.314652	0.000516429	0.000000000000000E+000	0.000000000000000E+000	0.000000000000000E+000	-5.15237e-06	0.000000000000000E+000	0.151347	0.151347	0.0000000E+000	0.0000000E+000	0.02085	1	7.398e-05	3.86213	170108
1	1	0	1	0	0	2	14	130763	0.02085	3.57732	0.0208542	0.00316043	0.265875	0.00264163	0.161062	2	-0.3149	0.000551036	0.000000000000000E+000	0.000000000000000E+000	0.000000000000000E+000	-5.34779e-06	0.000000000000000E+000	0.161062	0.161062	0.0000000E+000	0.0000000E+000	0.02085	1	7.4602e-05	3.89222	171539
1	1	0	1	0	0	2	14	132399	0.02085	3.60739	0.0208549	0.00315914	0.275352	0.00267567	0.17054	2	-0.315052	0.000585079	0.000000000000000E+000	0.000000000000000E+000	0.000000000000000E+000	-5.53841e-06	0.000000000000000E+000	0.17054	0.17054	0.0000000E+000	0.0000000E+000	0.02085	1	7.52316e-05	3.92244	172976
1	1	0	1	0	0	2	14	134080	0.02085	3.63746	0.020855	0.00328772	0.285089	0.00271094	0.180277	2	-0.315129	0.000620349	0.000000000000000E+000	0.000000000000000E+000	0.000000000000000E+000	-5.73426e-06	0.000000000000000E+000	0.180277	0.180277	0.0000000E+000	0.0000000E+000	0.02085	1	7.58592e-05	3.95258	174416
1	1	0	1	0	0	2	14	135860	0.02085	3.66758	0.020854	0.0034918	0.295399	0.0027486	0.190587	2	-0.315071	0.000658007	0.000000000000000E+000	0.000000000000000E+000	0.000000000000000E+000	-5.94165e-06	0.000000000000000E+000	0.190587	0.190587	0.0000000E+000	0.0000000E+000	0.02085	1	7.64838e-05	3.98265	175869
1	1	0	1	0	0	2	14	137694	0.02085	3.69738	0.0208541	0.00355133	0.306024	0.00278772	0.201212	2	-0.315338	0.00069713	0.000000000000000E+000	0.000000000000000E+000	0.000000000000000E+000	-6.15535e-06	0.000000000000000E+000	0.201212	0.201212	0.0000000E+000	0.0000000E+000	0.02085	1	7.71057e-05	4.01272	177298
1	1	0	1	0	0	2	14	139503	0.02085	3.72757	0.0208543	0.00344514	0.316503	0.00282662	0.21169	2	-0.315281	0.000736028	0.000000000000000E+000	0.000000000000000E+000	0.000000000000000E+000	-6.36611e-06	0.000000000000000E+000	0.21169	0.21169	0.0000000E+000	0.0000000E+000	0.02085	1	7.77357e-05	4.04285	178744
1	1	0	1	0	0	2	14	141209	0.02085	3.75745	0.0208546	0.0032391	0.326383	0.00286359	0.22157	2	-0.315453	0.000773	0.000000000000000E+000	0.000000000000000E+000	0.000000000000000E+000	-6.56484e-06	0.000000000000000E+000	0.22157	0.22157	0.0000000E+000	0.0000000E+000	0.02085	1	7.83602e-05	4.0729	180173
1	1	0	1	0	0	2	14	142804	0.02085	3.78754	0.0208543	0.00303568	0.335622	0.00289844	0.23081	2	-0.315453	0.000807853	0.000000000000000E+000	0.000000000000000E+000	0.000000000000000E+000	-6.75068e-06	0.000000000000000E+000	0.23081	0.23081	0.0000000E+000	0.0000000E+000	0.02085	1	7.89865e-05	4.10299	181619
1	1	0	1	0	0	2	14	144381	0.02085	3.81764	0.0208543	0.00306748	0.344757	0.00293318	0.239945	2	-0.315415	0.000842589	0.000000000000000E+000	0.000000000000000E+000	0.000000000000000E+000	-6.93442e-06	0.000000000000000E+000	0.239945	0.239945	0.0000000E+000	0.0000000E+000	0.02085	1	7.96141e-05	4.13306	183063
1	1	0	1	0	0	2	14	146053	0.02085	3.84787	0.0208538	0.00338137	0.354446	0.00297032	0.249634	2	-0.3153	0.000879725	0.000000000000000E+000	0.000000000000000E+000	0.000000000000000E+000	-7.12931e-06	0.000000000000000E+000	0.249634	0.249634	0.0000000E+000	0.0000000E+000	0.02085	1	8.02427e-05	4.16317	184516
1	1	0	1	0	0	2	14	148093	0.02085	3.87805	0.0208535	0.0044372	0.366263	0.00301597	0.261451	2	-0.315186	0.00092538	0.000000000000000E+000	0.000000000000000E+000	0.000000000000000E+000	-7.36699e-06	0.000000000000000E+000	0.261451	0.261451	0.0000000E+000	0.0000000E+000	0.02085	1	8.08709e-05	4.19324	185967
2	1	0	0	1	0	3	14	148742	3.88481	3.88492	0.0218913	7.0091e-09	0.370021	0.00303056	0.265209	2	-0.315186	0.000939966	0.000000000000000E+000	0.000000000000000E+000	0.000000000000000E+000	-7.44258e-06	0.000000000000000E+000	0.265209	0.265209	0.0000000E+000	3.88481	0.0000000E+000	1	8.50459e-05	4.20011	177464
2	1	0	0	0	0	3	14	148832	3.88481	3.88431	0.0131279	0.00011245	0.370374	0.00303193	0.265562	2	-0.314633	0.000941338	0.000000000000000E+000	0.000000000000000E+000	0.000000000000000E+000	-7.44968e-06	0.000000000000000E+000	0.265562	0.265562	0.0000000E+000	3.88481	0.0000000E+000	1	5.09928e-05	4.19894	295882
2	1	0	0	0	0	3	14	148922	3.88481	3.88402	0.0114775	9.6111e-05	0.370677	0.00303311	0.265865	2	-0.31448	0.000942516	0.000000000000000E+000	0.000000000000000E+000	0.000000000000000E+000	-7.45578e-06	0.000000000000000E+000	0.265865	0.265865	0.0000000E+000	3.88481	0.0000000E+000	1	4.45789e-05	4.1985	338403
2	1	0	0	0	0	3	14	149012	3.88481	3.88404	0.00975421	8.3734e-05	0.370942	0.00303413	0.266129	2	-0.314308	0.000943542	0.000000000000000E+000	0.000000000000000E+000	0.000000000000000E+000	-7.46109e-06	0.000000000000000E+000	0.266129	0.266129	0.0000000E+000	3.88481	0.0000000E+000	1	3.78858e-05	4.19835	398191
2	1	0	0	0	0	3	14	149102	3.88481	3.88412	0.00908566	7.52439e-05	0.371175	0.00303504	0.266362	2	-0.314385	0.000944447	0.000000000000000E+000	0.000000000000000E+000	0.000000000000000E+000	-7.46578e-06	0.000000000000000E+000	0.266362	0.266362	0.0000000E+000	3.88481	0.0000000E+000	1	3.52898e-05	4.1985	427500
2	1	0	0	0	0	3	14	149192	3.88481	3.88402	0.0078956	6.82423e-05	0.371386	0.00303586	0.266573	2	-0.314194	0.000945267	0.000000000000000E+000	0.000000000000000E+000	0.000000000000000E+000	-7.47003e-06	0.000000000000000E+000	0.266573	0.266573	0.0000000E+000	3.88481	0.0000000E+000	1	3.06667e-05	4.19822	491923
2	1	0	0	0	0	3	14	149282	3.88481	3.8841	0.00736002	6.32765e-05	0.371581	0.00303662	0.266769	2	-0.314175	0.000946025	0.000000000000000E+000	0.000000000000000E+000	0.000000000000000E+000	-7.47395e-06	0.000000000000000E+000	0.266769	0.266769	0.0000000E+000	3.88481	0.0000000E+000	1	2.8587e-05	4.19827	527730
2	1	0	0	0	0	3	14	149372	3.88481	3.88412	0.00695003	5.88578e-05	0.371761	0.00303732	0.266949	2	-0.314175	0.000946726	0.000000000000000E+000	0.000000000000000E+000	0.000000000000000E+000	-7.47758e-06	0.000000000000000E+000	0.266949	0.266949	0.0000000E+000	3.88481	0.0000000E+000	1	2.69947e-05	4.19829	558864
2	1	0	0	0	0	3	14	149462	3.88481	3.8842	0.0065858	5.51031e-05	0.37193	0.00303797	0.267118	2	-0.314175	0.000947382	0.000000000000000E+000	0.000000000000000E+000	0.000000000000000E+000	-7.48098e-06	0.000000000000000E+000	0.267118	0.267118	0.0000000E+000	3.88481	0.0000000E+000	1	2.55806e-05	4.19837	589783
2	1	0	0	0	0	3	14	149552	3.88481	3.88391	0.00641267	5.26425e-05	0.37209	0.0030386	0.267278	2	-0.314156	0.000948004	0.000000000000000E+000	0.000000000000000E+000	0.000000000000000E+000	-7.4842e-06	0.000000000000000E+000	0.267278	0.267278	0.0000000E+000	3.88481	0.0000000E+000	1	2.49062e-05	4.19806	605662
2	1	0	0	0	0	3	14	149642	3.88481	3.88414	0.00579778	4.96468e-05	0.372243	0.00303919	0.267431	2	-0.31406	0.000948598	0.000000000000000E+000	0.000000000000000E+000	0.000000000000000E+000	-7.48728e-06	0.000000000000000E+000	0.267431	0.267431	0.0000000E+000	3.88481	0.0000000E+000	1	2.25194e-05	4.1982	669936