File: Fresh Data/259/259_230525_C09.mpt
EC-Lab ASCII FILE
Nb header lines : 95

Modulo Bat

Run on channel : 9 (SN 55224)
User :
CE vs. WE compliance from -10 V to 10 V
Electrode connection : standard
Potential control : Ewe
Ewe ctrl range : min = -10.00 V, max = 10.00 V
Safety Limits :
	Do not start on E overload
Acquisition started on : 05/25/2023 17:46:33.771
Technique started on : 05/25/2023 17:46:33.771
Loaded Setting File :  C:\Users\OEMS\Documents\EC-Lab\Data\Mitch\Protocols\AMIDR Form.mps
Saved on :
	File : 259_230525_C09.mpr
	Directory : C:\Users\OEMS\Documents\EC-Lab\Data\Mitch\Results\Formation\
	Host : 192.168.1.58
Device : VMP-3e (SN .003109)
Address : USB
EC-Lab for windows v11.43 (software)
Internet server v11.40 (firmware)
Command interpretor v11.40 (firmware)
Electrode material :
Initial state :
Electrolyte :
Comments :
Mass of active material : 2.687 mg
 at x = 0.000
Molecular weight of active material (at x = 0) : 0.001 g/mol
Atomic weight of intercalated ion : 0.001 g/mol
Acquisition started at : xo = 0.000
Number of e- transfered per intercalated ion : 1
for DX = 1, DQ = 72015.628 mA.h
Battery capacity : 0.604 mA.h
Electrode surface area : 0.001 cm²
Characteristic mass : 0.001 g
Volume (V) : 0.001 cm³
Record Ece
Cycle Definition : Charge/Discharge alternance
Ns                  0                   1                   2                   3
ctrl_type           CC                  CC                  CC                  CV
Apply I/C           C / N               C / N               C / N               C / N
current/potential   current             current             current             current
ctrl1_val           60.000              60.000              60.000              0.000
ctrl1_val_unit      µA                  µA                  µA                  V
ctrl1_val_vs        <None>              <None>              <None>              Emeas
ctrl2_val
ctrl2_val_unit
ctrl2_val_vs
ctrl3_val
ctrl3_val_unit
ctrl3_val_vs
N                   20.00               20.00               20.00               20.00
charge/discharge    Charge              Discharge           Charge              Charge
charge/discharge_1  Charge              Charge              Charge              Charge
Apply I/C_1         I                   I                   I                   I
N1                  0.00                0.00                0.00                0.00
ctrl4_val
ctrl4_val_unit
ctrl_seq            0                   0                   0                   0
ctrl_repeat         0                   0                   0                   0
ctrl_trigger        Falling Edge        Falling Edge        Falling Edge        Falling Edge
ctrl_TO_t           0.000               0.000               0.000               0.000
ctrl_TO_t_unit      d                   d                   d                   d
ctrl_Nd             6                   6                   6                   6
ctrl_Na             2                   2                   2                   2
ctrl_corr           0                   0                   0                   0
lim_nb              1                   1                   1                   1
lim1_type           Ewe-Ece             Ewe-Ece             Ewe-Ece             Time
lim1_comp           >                   <                   >                   >
lim1_Q              Q limit             Q limit             Q limit             Q limit
lim1_value          4.200               3.000               4.200               15.000
lim1_value_unit     V                   V                   V                   mn
lim1_action         Next sequence       Next sequence       Next sequence       Next sequence
lim1_seq            1                   2                   3                   4
rec_nb              2                   2                   2                   1
rec1_type           Time                Time                Time                Time
rec1_value          20.000              20.000              20.000              30.000
rec1_value_unit     mn                  mn                  mn                  s
rec2_type           Ewe-Ece             Ewe-Ece             Ewe-Ece             Ewe-Ece
rec2_value          0.010               0.010               0.010               0.010
rec2_value_unit     V                   V                   V                   V
E range min (V)     -10.000             -10.000             -10.000             -10.000
E range max (V)     10.000              10.000              10.000              10.000
I Range             100 µA              100 µA              100 µA              100 µA
I Range min         Unset               Unset               Unset               Unset
I Range max         Unset               Unset               Unset               Unset
I Range init        Unset               Unset               Unset               Unset
auto rest           0                   0                   0                   0
Bandwidth           5                   5                   5                   5

mode	ox/red	error	control changes	Ns changes	counter inc.	Ns	I Range	time/s	control/V/mA	Ewe/V	I/mA	dq/mA.h	(Q-Qo)/mA.h	|Energy|/W.h	Q charge/discharge/mA.h	half cycle	Ece/V	Energy charge/W.h	Energy discharge/W.h	Capacitance charge/µF	Capacitance discharge/µF	x	Q discharge/mA.h	Q charge/mA.h	Capacity/mA.h	Efficiency/%	control/V	control/mA	cycle number	P/W	Ewe-Ece/V	R/Ohm
1	1	0	1	0	0	0	13	0.000000000000000E+000	0.0302	2.58677	0.030049	0.000000000000000E+000	0.000000000000000E+000	0.000000000000000E+000	0.000000000000000E+000	0	-0.318797	0.000000000000000E+000	0.000000000000000E+000	0.000000000000000E+000	0.000000000000000E+000	0.000000000000000E+000	0.000000000000000E+000	0.000000000000000E+000	0.000000000000000E+000	0.0000000E+000	0.0000000E+000	0.0302	0.000000000000000E+000	7.773e-05	2.90557	86085
1	1	0	1	0	0	0	13	0.695	0.0302	2.61146	0.0302062	2.47713e-06	5.83201e-06	1.51592e-08	5.83201e-06	0	-0.324225	1.51592e-08	0.000000000000000E+000	0.000000000000000E+000	0.000000000000000E+000	-8.09825e-11	0.000000000000000E+000	5.83201e-06	5.83201e-06	0.0000000E+000	0.0000000E+000	0.0302	0.000000000000000E+000	7.88823e-05	2.93568	86454.2
1	1	0	1	0	0	0	13	1.6452	0.0302	2.64147	0.0302018	2.7389e-06	1.38054e-05	3.61025e-08	1.38054e-05	0	-0.324302	3.61025e-08	0.000000000000000E+000	0.000000000000000E+000	0.000000000000000E+000	-1.917e-10	0.000000000000000E+000	1.38054e-05	1.38054e-05	0.0000000E+000	0.0000000E+000	0.0302	0.000000000000000E+000	7.9777e-05	2.96577	87460.6
1	1	0	1	0	0	0	13	2.6942	0.0302	2.67161	0.0302062	3.04603e-06	2.26078e-05	5.94875e-08	2.26078e-05	0	-0.324378	5.94875e-08	0.000000000000000E+000	0.000000000000000E+000	0.000000000000000E+000	-3.13929e-10	0.000000000000000E+000	2.26078e-05	2.26078e-05	0.0000000E+000	0.0000000E+000	0.0302	0.000000000000000E+000	8.06993e-05	2.99599	88445.6
1	1	0	1	0	0	0	13	3.8586	0.0302	2.70175	0.0302101	3.37661e-06	3.23785e-05	8.57395e-08	3.23785e-05	0	-0.324321	8.57395e-08	0.000000000000000E+000	0.000000000000000E+000	0.000000000000000E+000	-4.49604e-10	0.000000000000000E+000	3.23785e-05	3.23785e-05	0.0000000E+000	0.0000000E+000	0.0302	0.000000000000000E+000	8.162e-05	3.02607	89432.1
1	1	0	1	0	0	0	13	5.1728	0.0302	2.73195	0.030212	3.84811e-06	4.3406e-05	1.15702e-07	4.3406e-05	0	-0.324416	1.15702e-07	0.000000000000000E+000	0.000000000000000E+000	0.000000000000000E+000	-6.0273e-10	0.000000000000000E+000	4.3406e-05	4.3406e-05	0.0000000E+000	0.0000000E+000	0.0302	0.000000000000000E+000	8.25376e-05	3.05637	90426
1	1	0	1	0	0	0	13	6.6672	0.0302	2.76224	0.030205	4.39187e-06	5.59456e-05	1.50152e-07	5.59456e-05	0	-0.324302	1.50152e-07	0.000000000000000E+000	0.000000000000000E+000	0.000000000000000E+000	-7.76853e-10	0.000000000000000E+000	5.59456e-05	5.59456e-05	0.0000000E+000	0.0000000E+000	0.0302	0.000000000000000E+000	8.34335e-05	3.08655	91450
1	1	0	1	0	0	0	13	8.3954	0.0302	2.79252	0.030212	5.06314e-06	7.04469e-05	1.90431e-07	7.04469e-05	0	-0.324282	1.90431e-07	0.000000000000000E+000	0.000000000000000E+000	0.000000000000000E+000	-9.78217e-10	0.000000000000000E+000	7.04469e-05	7.04469e-05	0.0000000E+000	0.0000000E+000	0.0302	0.000000000000000E+000	8.43675e-05	3.1168	92430.9
1	1	0	1	0	0	0	13	10.41	0.0302	2.82274	0.030205	5.97949e-06	8.73515e-05	2.37896e-07	8.73515e-05	0	-0.32434	2.37896e-07	0.000000000000000E+000	0.000000000000000E+000	0.000000000000000E+000	-1.21295e-09	0.000000000000000E+000	8.73515e-05	8.73515e-05	0.0000000E+000	0.0000000E+000	0.0302	0.000000000000000E+000	8.52607e-05	3.14708	93452.8
1	1	0	1	0	0	0	13	12.7554	0.0302	2.85294	0.0302082	6.85544e-06	0.000107032	2.93751e-07	0.000107032	0	-0.324282	2.93751e-07	0.000000000000000E+000	0.000000000000000E+000	0.000000000000000E+000	-1.48623e-09	0.000000000000000E+000	0.000107032	0.000107032	0.0000000E+000	0.0000000E+000	0.0302	0.000000000000000E+000	8.6182e-05	3.17722	94442.6
1	1	0	1	0	0	0	13	15.4886	0.0302	2.88308	0.0302037	8.07207e-06	0.000129966	3.59533e-07	0.000129966	0	-0.324302	3.59533e-07	0.000000000000000E+000	0.000000000000000E+000	0.000000000000000E+000	-1.80469e-09	0.000000000000000E+000	0.000129966	0.000129966	0.0000000E+000	0.0000000E+000	0.0302	0.000000000000000E+000	8.70797e-05	3.20738	95454.5
1	1	0	1	0	0	0	13	18.6792	0.0302	2.91328	0.0302113	9.46661e-06	0.000156738	4.37128e-07	0.000156738	0	-0.324206	4.37128e-07	0.000000000000000E+000	0.000000000000000E+000	0.000000000000000E+000	-2.17644e-09	0.000000000000000E+000	0.000156738	0.000156738	0.0000000E+000	0.0000000E+000	0.0302	0.000000000000000E+000	8.8014e-05	3.23748	96430
1	1	0	1	0	0	0	13	22.3864	0.0302	2.94334	0.030198	1.08794e-05	0.000187844	5.28221e-07	0.000187844	0	-0.324206	5.28221e-07	0.000000000000000E+000	0.000000000000000E+000	0.000000000000000E+000	-2.60838e-09	0.000000000000000E+000	0.000187844	0.000187844	0.0000000E+000	0.0000000E+000	0.0302	0.000000000000000E+000	8.8883e-05	3.26755	97468.3
1	1	0	1	0	0	0	13	26.6626	0.0302	2.97333	0.0302107	1.2519e-05	0.000223725	6.34374e-07	0.000223725	0	-0.324321	6.34374e-07	0.000000000000000E+000	0.000000000000000E+000	0.000000000000000E+000	-3.10661e-09	0.000000000000000E+000	0.000223725	0.000223725	0.0000000E+000	0.0000000E+000	0.0302	0.000000000000000E+000	8.98265e-05	3.29765	98419.9
1	1	0	1	0	0	0	13	31.5816	0.0302	3.00348	0.0302132	1.45159e-05	0.000264999	7.57728e-07	0.000264999	0	-0.32434	7.57728e-07	0.000000000000000E+000	0.000000000000000E+000	0.000000000000000E+000	-3.67974e-09	0.000000000000000E+000	0.000264999	0.000264999	0.0000000E+000	0.0000000E+000	0.0302	0.000000000000000E+000	9.07447e-05	3.32781	99409.2
1	1	0	1	0	0	0	13	37.3006	0.0302	3.03356	0.0302075	1.69824e-05	0.000312985	9.02588e-07	0.000312985	0	-0.32434	9.02588e-07	0.000000000000000E+000	0.000000000000000E+000	0.000000000000000E+000	-4.34607e-09	0.000000000000000E+000	0.000312985	0.000312985	0.0000000E+000	0.0000000E+000	0.0302	0.000000000000000E+000	9.16363e-05	3.3579	100424
1	1	0	1	0	0	0	13	44.0956	0.0302	3.06349	0.0302012	2.02215e-05	0.000369999	1.07642e-06	0.000369999	0	-0.324492	1.07642e-06	0.000000000000000E+000	0.000000000000000E+000	0.000000000000000E+000	-5.13776e-09	0.000000000000000E+000	0.000369999	0.000369999	0.0000000E+000	0.0000000E+000	0.0302	0.000000000000000E+000	9.2521e-05	3.38798	101436
1	1	0	1	0	0	0	13	52.6168	0.0302	3.09365	0.0302062	2.57824e-05	0.000441496	1.29657e-06	0.000441496	0	-0.324511	1.29657e-06	0.000000000000000E+000	0.000000000000000E+000	0.000000000000000E+000	-6.13056e-09	0.000000000000000E+000	0.000441496	0.000441496	0.0000000E+000	0.0000000E+000	0.0302	0.000000000000000E+000	9.34476e-05	3.41816	102418
1	1	0	1	0	0	0	13	63.8734	0.0302	3.1237	0.0302107	3.53729e-05	0.000535946	1.59025e-06	0.000535946	0	-0.324588	1.59025e-06	0.000000000000000E+000	0.000000000000000E+000	0.000000000000000E+000	-7.44208e-09	0.000000000000000E+000	0.000535946	0.000535946	0.0000000E+000	0.0000000E+000	0.0302	0.000000000000000E+000	9.43692e-05	3.44829	103397
1	1	0	1	0	0	0	13	81.0202	0.0302	3.15386	0.0301992	5.69595e-05	0.000679816	2.04199e-06	0.000679816	0	-0.324683	2.04199e-06	0.000000000000000E+000	0.000000000000000E+000	0.000000000000000E+000	-9.43984e-09	0.000000000000000E+000	0.000679816	0.000679816	0.0000000E+000	0.0000000E+000	0.0302	0.000000000000000E+000	9.52442e-05	3.47854	104435
1	1	0	1	0	0	0	13	115.882	0.0302	3.18379	0.0302043	0.000130247	0.000972322	2.96953e-06	0.000972322	0	-0.324855	2.96953e-06	0.000000000000000E+000	0.000000000000000E+000	0.000000000000000E+000	-1.35015e-08	0.000000000000000E+000	0.000972322	0.000972322	0.0000000E+000	0.0000000E+000	0.0302	0.000000000000000E+000	9.61643e-05	3.50865	105408
1	1	0	1	0	0	0	13	208.067	0.0302	3.21405	0.0302037	0.000310537	0.00174579	5.44501e-06	0.00174579	0	-0.324721	5.44501e-06	0.000000000000000E+000	0.000000000000000E+000	0.000000000000000E+000	-2.42418e-08	0.000000000000000E+000	0.00174579	0.00174579	0.0000000E+000	0.0000000E+000	0.0302	0.000000000000000E+000	9.70762e-05	3.53877	106412
1	1	0	1	0	0	0	13	297.216	0.0302	3.24425	0.0302075	0.000210262	0.00249377	7.85929e-06	0.00249377	0	-0.324626	7.85929e-06	0.000000000000000E+000	0.000000000000000E+000	0.000000000000000E+000	-3.46282e-08	0.000000000000000E+000	0.00249377	0.00249377	0.0000000E+000	0.0000000E+000	0.0302	0.000000000000000E+000	9.80007e-05	3.56887	107399
1	1	0	1	0	0	0	13	354.215	0.0302	3.2745	0.0302062	0.000141599	0.002972	9.4175e-06	0.002972	0	-0.324454	9.4175e-06	0.000000000000000E+000	0.000000000000000E+000	0.000000000000000E+000	-4.12689e-08	0.000000000000000E+000	0.002972	0.002972	0.0000000E+000	0.0000000E+000	0.0302	0.000000000000000E+000	9.89105e-05	3.59896	108405
1	1	0	1	0	0	0	13	398.91	0.0302	3.3051	0.0302062	0.000122193	0.003347	1.0651e-05	0.003347	0	-0.324111	1.0651e-05	0.000000000000000E+000	0.000000000000000E+000	0.000000000000000E+000	-4.64761e-08	0.000000000000000E+000	0.003347	0.003347	0.0000000E+000	0.0000000E+000	0.0302	0.000000000000000E+000	9.98348e-05	3.62922	109418
1	1	0	1	0	0	0	13	453.236	0.0302	3.33574	0.0302043	0.000180604	0.00380281	1.2165e-05	0.00380281	0	-0.323558	1.2165e-05	0.000000000000000E+000	0.000000000000000E+000	0.000000000000000E+000	-5.28054e-08	0.000000000000000E+000	0.00380281	0.00380281	0.0000000E+000	0.0000000E+000	0.0302	0.000000000000000E+000	0.000100754	3.6593	110439
1	1	0	1	0	0	0	13	618.919	0.0302	3.36661	0.0302043	0.000737026	0.00519294	1.68287e-05	0.00519294	0	-0.322814	1.68287e-05	0.000000000000000E+000	0.000000000000000E+000	0.000000000000000E+000	-7.21084e-08	0.000000000000000E+000	0.00519294	0.00519294	0.0000000E+000	0.0000000E+000	0.0302	0.000000000000000E+000	0.000101686	3.68942	111461
1	1	0	1	0	0	0	13	2559.46	0.0302	3.3983	0.0302107	0.0100687	0.021475	7.19991e-05	0.021475	0	-0.320563	7.19991e-05	0.000000000000000E+000	0.000000000000000E+000	0.000000000000000E+000	-2.98199e-07	0.000000000000000E+000	0.021475	0.021475	0.0000000E+000	0.0000000E+000	0.0302	0.000000000000000E+000	0.000102665	3.71886	112487
1	1	0	1	0	0	0	13	6159.46	0.0302	3.41947	0.0302088	0.0100687	0.0516811	0.000174982	0.0516811	0	-0.31837	0.000174982	0.000000000000000E+000	0.000000000000000E+000	0.000000000000000E+000	-7.17638e-07	0.000000000000000E+000	0.0516811	0.0516811	0.0000000E+000	0.0000000E+000	0.0302	0.000000000000000E+000	0.000103298	3.73784	113195
1	1	0	1	0	0	0	13	9759.46	0.0302	3.43977	0.0302101	0.0100687	0.0818875	0.000278574	0.0818875	0	-0.317149	0.000278574	0.000000000000000E+000	0.000000000000000E+000	0.000000000000000E+000	-1.13708e-06	0.000000000000000E+000	0.0818875	0.0818875	0.0000000E+000	0.0000000E+000	0.0302	0.000000000000000E+000	0.000103916	3.75692	113862
1	1	0	1	0	0	0	13	13359.5	0.0302	3.46133	0.0302005	0.0100684	0.112093	0.000382801	0.112093	0	-0.31652	0.000382801	0.000000000000000E+000	0.000000000000000E+000	0.000000000000000E+000	-1.55651e-06	0.000000000000000E+000	0.112093	0.112093	0.0000000E+000	0.0000000E+000	0.0302	0.000000000000000E+000	0.000104534	3.77785	114612
1	1	0	1	0	0	0	13	16959.5	0.0302	3.48205	0.0302043	0.0100683	0.142298	0.000487663	0.142298	0	-0.316253	0.000487663	0.000000000000000E+000	0.000000000000000E+000	0.000000000000000E+000	-1.97593e-06	0.000000000000000E+000	0.142298	0.142298	0.0000000E+000	0.0000000E+000	0.0302	0.000000000000000E+000	0.000105173	3.7983	115283
1	1	0	1	0	0	0	13	20559.5	0.0302	3.50276	0.0302012	0.0100681	0.172502	0.000593146	0.172502	0	-0.315681	0.000593146	0.000000000000000E+000	0.000000000000000E+000	0.000000000000000E+000	-2.39535e-06	0.000000000000000E+000	0.172502	0.172502	0.0000000E+000	0.0000000E+000	0.0302	0.000000000000000E+000	0.000105788	3.81844	115981
1	1	0	1	0	0	0	13	24159.5	0.0302	3.52747	0.0302024	0.010068	0.202706	0.000699305	0.202706	0	-0.315509	0.000699305	0.000000000000000E+000	0.000000000000000E+000	0.000000000000000E+000	-2.81475e-06	0.000000000000000E+000	0.202706	0.202706	0.0000000E+000	0.0000000E+000	0.0302	0.000000000000000E+000	0.000106538	3.84298	116794
1	1	0	1	0	0	0	13	27485.2	0.0302	3.55706	0.0301967	0.00878157	0.230609	0.000798123	0.230609	0	-0.315318	0.000798123	0.000000000000000E+000	0.000000000000000E+000	0.000000000000000E+000	-3.20221e-06	0.000000000000000E+000	0.230609	0.230609	0.0000000E+000	0.0000000E+000	0.0302	0.000000000000000E+000	0.000107411	3.87238	117796
1	1	0	1	0	0	0	13	30189.2	0.0302	3.58745	0.0302056	0.00701579	0.253295	0.000879144	0.253295	0	-0.315032	0.000879144	0.000000000000000E+000	0.000000000000000E+000	0.000000000000000E+000	-3.51723e-06	0.000000000000000E+000	0.253295	0.253295	0.0000000E+000	0.0000000E+000	0.0302	0.000000000000000E+000	0.000108361	3.90248	118768
1	1	0	1	0	0	0	13	32427	0.0302	3.61778	0.0302101	0.00597187	0.272071	0.000946772	0.272071	0	-0.314937	0.000946772	0.000000000000000E+000	0.000000000000000E+000	0.000000000000000E+000	-3.77794e-06	0.000000000000000E+000	0.272071	0.272071	0.0000000E+000	0.0000000E+000	0.0302	0.000000000000000E+000	0.000109293	3.93272	119754
1	1	0	1	0	0	0	13	34386.3	0.0302	3.64813	0.0302056	0.00528063	0.288509	0.00100648	0.288509	0	-0.314746	0.00100648	0.000000000000000E+000	0.000000000000000E+000	0.000000000000000E+000	-4.00619e-06	0.000000000000000E+000	0.288509	0.288509	0.0000000E+000	0.0000000E+000	0.0302	0.000000000000000E+000	0.000110194	3.96288	120777
1	1	0	1	0	0	0	13	36168	0.0302	3.67843	0.0301942	0.00488638	0.303456	0.00106123	0.303456	0	-0.314574	0.00106123	0.000000000000000E+000	0.000000000000000E+000	0.000000000000000E+000	-4.21375e-06	0.000000000000000E+000	0.303456	0.303456	0.0000000E+000	0.0000000E+000	0.0302	0.000000000000000E+000	0.000111067	3.993	121826
1	1	0	1	0	0	0	13	37854.8	0.0302	3.70864	0.0302018	0.00465756	0.317608	0.0011135	0.317608	0	-0.31446	0.0011135	0.000000000000000E+000	0.000000000000000E+000	0.000000000000000E+000	-4.41026e-06	0.000000000000000E+000	0.317608	0.317608	0.0000000E+000	0.0000000E+000	0.0302	0.000000000000000E+000	0.000112008	4.0231	122796
1	1	0	1	0	0	0	13	39474.1	0.0302	3.73886	0.0302031	0.00447484	0.331193	0.00116408	0.331193	0	-0.314288	0.00116408	0.000000000000000E+000	0.000000000000000E+000	0.000000000000000E+000	-4.5989e-06	0.000000000000000E+000	0.331193	0.331193	0.0000000E+000	0.0000000E+000	0.0302	0.000000000000000E+000	0.000112925	4.05315	123791
1	1	0	1	0	0	0	13	41044.8	0.0302	3.76908	0.030205	0.00433481	0.344371	0.00121355	0.344371	0	-0.314136	0.00121355	0.000000000000000E+000	0.000000000000000E+000	0.000000000000000E+000	-4.7819e-06	0.000000000000000E+000	0.344371	0.344371	0.0000000E+000	0.0000000E+000	0.0302	0.000000000000000E+000	0.000113845	4.08322	124783
1	1	0	1	0	0	0	13	42567.3	0.0302	3.79926	0.0301986	0.00420469	0.357144	0.00126188	0.357144	0	-0.314002	0.00126188	0.000000000000000E+000	0.000000000000000E+000	0.000000000000000E+000	-4.95925e-06	0.000000000000000E+000	0.357144	0.357144	0.0000000E+000	0.0000000E+000	0.0302	0.000000000000000E+000	0.000114732	4.11326	125809
1	1	0	1	0	0	0	13	44047.1	0.0302	3.82952	0.0302056	0.00413701	0.369559	0.00130923	0.369559	0	-0.313869	0.00130923	0.000000000000000E+000	0.000000000000000E+000	0.000000000000000E+000	-5.13165e-06	0.000000000000000E+000	0.369559	0.369559	0.0000000E+000	0.0000000E+000	0.0302	0.000000000000000E+000	0.000115673	4.14339	126782
1	1	0	1	0	0	0	13	45510.1	0.0302	3.85989	0.0302107	0.00410164	0.381833	0.00135642	0.381833	0	-0.313602	0.00135642	0.000000000000000E+000	0.000000000000000E+000	0.000000000000000E+000	-5.30208e-06	0.000000000000000E+000	0.381833	0.381833	0.0000000E+000	0.0000000E+000	0.0302	0.000000000000000E+000	0.00011661	4.17349	127766
1	1	0	1	0	0	0	13	46813.4	0.0302	3.88667	0.0302037	0.00280083	0.392767	0.00139877	0.392767	0	-0.313392	0.00139877	0.000000000000000E+000	0.000000000000000E+000	0.000000000000000E+000	-5.45391e-06	0.000000000000000E+000	0.392767	0.392767	0.0000000E+000	0.0000000E+000	0.0302	0.000000000000000E+000	0.000117392	4.20007	128682
1	0	0	0	0	0	1	13	46895.1	-0.0302	3.87958	-0.0301994	-0.000685862	0.392081	0.00140143	-0.000685862	1	-0.310512	0.00139877	2.6623e-06	0.000000000000000E+000	0.000000000000000E+000	-5.44439e-06	0.000685862	0.000000000000000E+000	0.000685862	0.0000000E+000	0.0000000E+000	-0.0302	0.000000000000000E+000	-0.000117161	4.19009	128465
1	0	0	0	0	0	1	13	47811.3	-0.0302	3.84976	-0.0302026	-0.00271781	0.384394	0.00143113	-0.0083725	1	-0.310283	0.00139877	3.23668e-05	0.000000000000000E+000	0.000000000000000E+000	-5.33765e-06	0.0083725	0.000000000000000E+000	0.0083725	0.0000000E+000	0.0000000E+000	-0.0302	0.000000000000000E+000	-0.000116273	4.16005	127465
1	0	0	0	0	0	1	13	48838.7	-0.0302	3.81964	-0.0301994	-0.00295702	0.375776	0.00146418	-0.0169911	1	-0.310302	0.00139877	6.54169e-05	0.000000000000000E+000	0.000000000000000E+000	-5.21797e-06	0.0169911	0.000000000000000E+000	0.0169911	0.0000000E+000	0.0000000E+000	-0.0302	0.000000000000000E+000	-0.000115351	4.12994	126481
1	0	0	0	0	0	1	13	49954.1	-0.0302	3.78963	-0.0302039	-0.00321873	0.366418	0.00149979	-0.0263489	1	-0.310188	0.00139877	0.00010102	0.000000000000000E+000	0.000000000000000E+000	-5.08803e-06	0.0263489	0.000000000000000E+000	0.0263489	0.0000000E+000	0.0000000E+000	-0.0302	0.000000000000000E+000	-0.000114462	4.09982	125468
1	0	0	0	0	0	1	13	51150	-0.0302	3.75951	-0.0301975	-0.00341761	0.356385	0.00153766	-0.0363819	1	-0.310245	0.00139877	0.000138891	0.000000000000000E+000	0.000000000000000E+000	-4.94872e-06	0.0363819	0.000000000000000E+000	0.0363819	0.0000000E+000	0.0000000E+000	-0.0302	0.000000000000000E+000	-0.000113528	4.06975	124497
1	0	0	0	0	0	1	13	52431.3	-0.0302	3.72952	-0.0301994	-0.00368109	0.345635	0.00157791	-0.0471314	1	-0.310111	0.00139877	0.000179143	0.000000000000000E+000	0.000000000000000E+000	-4.79945e-06	0.0471314	0.000000000000000E+000	0.0471314	0.0000000E+000	0.0000000E+000	-0.0302	0.000000000000000E+000	-0.000112629	4.03963	123496
1	0	0	0	0	0	1	13	53779.1	-0.0302	3.69955	-0.0302052	-0.00380827	0.334328	0.00161991	-0.0584389	1	-0.309997	0.00139877	0.000221146	0.000000000000000E+000	0.000000000000000E+000	-4.64244e-06	0.0584389	0.000000000000000E+000	0.0584389	0.0000000E+000	0.0000000E+000	-0.0302	0.000000000000000E+000	-0.000111746	4.00955	122481
1	0	0	0	0	0	1	13	55206.4	-0.0302	3.66948	-0.030202	-0.00410021	0.322354	0.00166403	-0.0704124	1	-0.310016	0.00139877	0.000265263	0.000000000000000E+000	0.000000000000000E+000	-4.47617e-06	0.0704124	0.000000000000000E+000	0.0704124	0.0000000E+000	0.0000000E+000	-0.0302	0.000000000000000E+000	-0.000110826	3.9795	121498
1	0	0	0	0	0	1	13	56730.1	-0.0302	3.63948	-0.0302033	-0.00440915	0.309572	0.00171074	-0.083195	1	-0.309959	0.00139877	0.000311977	0.000000000000000E+000	0.000000000000000E+000	-4.29868e-06	0.083195	0.000000000000000E+000	0.083195	0.0000000E+000	0.0000000E+000	-0.0302	0.000000000000000E+000	-0.000109924	3.94943	120499
1	0	0	0	0	0	1	13	58410.7	-0.0302	3.60935	-0.0302071	-0.00491198	0.295472	0.00176184	-0.0972945	1	-0.309959	0.00139877	0.000363078	0.000000000000000E+000	0.000000000000000E+000	-4.10289e-06	0.0972945	0.000000000000000E+000	0.0972945	0.0000000E+000	0.0000000E+000	-0.0302	0.000000000000000E+000	-0.000109028	3.91931	119487
1	0	0	0	0	0	1	13	60325	-0.0302	3.57936	-0.0302001	-0.00563597	0.279413	0.00181957	-0.113354	1	-0.309825	0.00139877	0.0004208	0.000000000000000E+000	0.000000000000000E+000	-3.87989e-06	0.113354	0.000000000000000E+000	0.113354	0.0000000E+000	0.0000000E+000	-0.0302	0.000000000000000E+000	-0.000108097	3.88919	118522
1	0	0	0	0	0	1	13	62611.6	-0.0302	3.5493	-0.0301937	-0.00684292	0.260231	0.00188793	-0.132536	1	-0.309806	0.00139877	0.000489166	0.000000000000000E+000	0.000000000000000E+000	-3.61353e-06	0.132536	0.000000000000000E+000	0.132536	0.0000000E+000	0.0000000E+000	-0.0302	0.000000000000000E+000	-0.000107166	3.8591	117551
1	0	0	0	0	0	1	13	65450.3	-0.0302	3.51919	-0.0301931	-0.00864014	0.236416	0.00197209	-0.156351	1	-0.309692	0.00139877	0.000573323	0.000000000000000E+000	0.000000000000000E+000	-3.28284e-06	0.156351	0.000000000000000E+000	0.156351	0.0000000E+000	0.0000000E+000	-0.0302	0.000000000000000E+000	-0.000106255	3.82889	116556
1	0	0	0	0	0	1	13	68952.1	-0.0302	3.49002	-0.030209	-0.0100671	0.207038	0.00207503	-0.185729	1	-0.309844	0.00139877	0.000676269	0.000000000000000E+000	0.000000000000000E+000	-2.8749e-06	0.185729	0.000000000000000E+000	0.185729	0.0000000E+000	0.0000000E+000	-0.0302	0.000000000000000E+000	-0.00010543	3.79987	115529
1	0	0	0	0	0	1	13	72552.1	-0.0302	3.46498	-0.0301994	-0.0100673	0.176836	0.00218006	-0.215931	1	-0.309863	0.00139877	0.000781289	0.000000000000000E+000	0.000000000000000E+000	-2.45552e-06	0.215931	0.000000000000000E+000	0.215931	0.0000000E+000	0.0000000E+000	-0.0302	0.000000000000000E+000	-0.00010464	3.77484	114736
1	0	0	0	0	0	1	13	76152.1	-0.0302	3.44096	-0.0301963	-0.0100676	0.146634	0.00228435	-0.246133	1	-0.309901	0.00139877	0.000885582	0.000000000000000E+000	0.000000000000000E+000	-2.03613e-06	0.246133	0.000000000000000E+000	0.246133	0.0000000E+000	0.0000000E+000	-0.0302	0.000000000000000E+000	-0.000103904	3.75086	113953
1	0	0	0	0	0	1	13	79649.8	-0.0302	3.41316	-0.0301982	-0.00920944	0.117289	0.00238493	-0.275478	1	-0.309615	0.00139877	0.000986168	0.000000000000000E+000	0.000000000000000E+000	-1.62866e-06	0.275478	0.000000000000000E+000	0.275478	0.0000000E+000	0.0000000E+000	-0.0302	0.000000000000000E+000	-0.000103071	3.72278	113026
1	0	0	0	0	0	1	13	82305.3	-0.0302	3.3831	-0.0302052	-0.00622765	0.0950115	0.00246067	-0.297755	1	-0.309577	0.00139877	0.0010619	0.000000000000000E+000	0.000000000000000E+000	-1.31932e-06	0.297755	0.000000000000000E+000	0.297755	0.0000000E+000	0.0000000E+000	-0.0302	0.000000000000000E+000	-0.000102187	3.69267	112004
1	0	0	0	0	0	1	13	83773.4	-0.0302	3.35297	-0.0302007	-0.00314811	0.0826949	0.00250218	-0.310072	1	-0.309596	0.00139877	0.00110341	0.000000000000000E+000	0.000000000000000E+000	-1.14829e-06	0.310072	0.000000000000000E+000	0.310072	0.0000000E+000	0.0000000E+000	-0.0302	0.000000000000000E+000	-0.000101262	3.66257	111023
1	0	0	0	0	0	1	13	84437.2	-0.0302	3.32306	-0.0302001	-0.00135643	0.0771258	0.00252078	-0.315641	1	-0.309444	0.00139877	0.00112201	0.000000000000000E+000	0.000000000000000E+000	-1.07096e-06	0.315641	0.000000000000000E+000	0.315641	0.0000000E+000	0.0000000E+000	-0.0302	0.000000000000000E+000	-0.000100357	3.6325	110035
1	0	0	0	0	0	1	13	84728.5	-0.0302	3.29282	-0.0302013	-0.000625633	0.0746817	0.00252887	-0.318085	1	-0.30952	0.00139877	0.0011301	0.000000000000000E+000	0.000000000000000E+000	-1.03702e-06	0.318085	0.000000000000000E+000	0.318085	0.0000000E+000	0.0000000E+000	-0.0302	0.000000000000000E+000	-9.94477e-05	3.60234	109029
1	0	0	0	0	0	1	13	84878.6	-0.0302	3.26268	-0.030202	-0.000346546	0.0734231	0.002533	-0.319344	1	-0.309615	0.00139877	0.00113423	0.000000000000000E+000	0.000000000000000E+000	-1.01954e-06	0.319344	0.000000000000000E+000	0.319344	0.0000000E+000	0.0000000E+000	-0.0302	0.000000000000000E+000	-9.85395e-05	3.5723	108029
1	0	0	0	0	0	1	13	84974.2	-0.0302	3.23267	-0.0302033	-0.000238332	0.0726207	0.0025356	-0.320146	1	-0.309539	0.00139877	0.00113684	0.000000000000000E+000	0.000000000000000E+000	-1.0084e-06	0.320146	0.000000000000000E+000	0.320146	0.0000000E+000	0.0000000E+000	-0.0302	0.000000000000000E+000	-9.76373e-05	3.54221	107031
1	0	0	0	0	0	1	13	85047.9	-0.0302	3.2027	-0.0301975	-0.000193288	0.0720021	0.00253759	-0.320765	1	-0.309463	0.00139877	0.00113883	0.000000000000000E+000	0.000000000000000E+000	-9.99813e-07	0.320765	0.000000000000000E+000	0.320765	0.0000000E+000	0.0000000E+000	-0.0302	0.000000000000000E+000	-9.67137e-05	3.51217	106058
1	0	0	0	0	0	1	13	85085.6	-0.0302	3.09017	-0.0331851	-1.24181e-06	0.0716866	0.0025386	-0.32108	1	-0.304084	0.00139877	0.00113983	0.000000000000000E+000	0.000000000000000E+000	-9.95431e-07	0.32108	0.000000000000000E+000	0.32108	0.0000000E+000	0.0000000E+000	-0.0302	0.000000000000000E+000	-0.000102547	3.39425	93119.2
1	0	0	0	0	0	1	13	85085.6	-0.0302	3.22188	-0.000989155	-1.51439e-09	0.0716861	0.0025386	-0.321081	1	-0.27023	0.00139877	0.00113984	0.000000000000000E+000	0.000000000000000E+000	-9.95425e-07	0.321081	0.000000000000000E+000	0.321081	0.0000000E+000	0.0000000E+000	-0.0302	0.000000000000000E+000	-3.18694e-06	3.49211	3.2572e+06
1	0	0	0	0	0	1	13	85085.6	-0.0302	2.57863	-0.0144356	-8.01979e-10	0.0716861	0.0025386	-0.321081	1	-0.301891	0.00139877	0.00113984	0.000000000000000E+000	0.000000000000000E+000	-9.95425e-07	0.321081	0.000000000000000E+000	0.321081	0.0000000E+000	0.0000000E+000	-0.0302	0.000000000000000E+000	-3.72241e-05	2.88052	178630
1	0	0	0	0	0	1	13	85085.6	-0.0302	2.5157	-0.0300696	-1.67053e-09	0.0716861	0.0025386	-0.321081	1	-0.308585	0.00139877	0.00113984	0.000000000000000E+000	0.000000000000000E+000	-9.95424e-07	0.321081	0.000000000000000E+000	0.321081	0.0000000E+000	0.0000000E+000	-0.0302	0.000000000000000E+000	-7.56459e-05	2.82428	83662.4
1	1	0	1	0	0	2	13	85086	0.0302	3.20259	0.0302043	3.4343e-06	0.0716895	0.00253861	3.43463e-06	2	-0.311523	1.09735e-08	0.000000000000000E+000	0.000000000000000E+000	0.000000000000000E+000	-9.95472e-07	0.000000000000000E+000	3.43463e-06	3.43463e-06	0.0000000E+000	0.0000000E+000	0.0302	1	9.67321e-05	3.51411	106031
1	1	0	1	0	0	2	13	85087.1	0.0302	3.23241	0.030205	3.43294e-06	0.0716986	0.00253864	1.24734e-05	2	-0.311847	4.00628e-08	0.000000000000000E+000	0.000000000000000E+000	0.000000000000000E+000	-9.95598e-07	0.000000000000000E+000	1.24734e-05	1.24734e-05	0.0000000E+000	0.0000000E+000	0.0302	1	9.76347e-05	3.54425	107016
1	1	0	1	0	0	2	13	85088.6	0.0302	3.2623	0.0301992	4.99171e-06	0.0717116	0.00253868	2.54618e-05	2	-0.312038	8.22523e-08	0.000000000000000E+000	0.000000000000000E+000	0.000000000000000E+000	-9.95778e-07	0.000000000000000E+000	2.54618e-05	2.54618e-05	0.0000000E+000	0.0000000E+000	0.0302	1	9.8519e-05	3.57434	108026
1	1	0	1	0	0	2	13	85091.2	0.0302	3.29239	0.0302101	8.50526e-06	0.0717327	0.00253875	4.6615e-05	2	-0.312171	1.51608e-07	0.000000000000000E+000	0.000000000000000E+000	0.000000000000000E+000	-9.96072e-07	0.000000000000000E+000	4.6615e-05	4.6615e-05	0.0000000E+000	0.0000000E+000	0.0302	1	9.94632e-05	3.60456	108983
1	1	0	1	0	0	2	13	85097.1	0.0302	3.3223	0.0302037	2.35141e-05	0.0717828	0.00253892	9.66483e-05	2	-0.312305	3.1722e-07	0.000000000000000E+000	0.000000000000000E+000	0.000000000000000E+000	-9.96766e-07	0.000000000000000E+000	9.66483e-05	9.66483e-05	0.0000000E+000	0.0000000E+000	0.0302	1	0.000100346	3.6346	109996
1	1	0	1	0	0	2	13	85128.7	0.0302	3.35236	0.0302005	0.000150211	0.0720476	0.0025398	0.000361444	2	-0.312381	1.20214e-06	0.000000000000000E+000	0.000000000000000E+000	0.000000000000000E+000	-1.00044e-06	0.000000000000000E+000	0.000361444	0.000361444	0.0000000E+000	0.0000000E+000	0.0302	1	0.000101243	3.66474	111004
1	1	0	1	0	0	2	13	85483.4	0.0302	3.3819	0.030205	0.00186613	0.0750232	0.00254984	0.00333706	2	-0.312934	1.12383e-05	0.000000000000000E+000	0.000000000000000E+000	0.000000000000000E+000	-1.04176e-06	0.000000000000000E+000	0.00333706	0.00333706	0.0000000E+000	0.0000000E+000	0.0302	1	0.00010215	3.69483	111965
1	1	0	1	0	0	2	13	86067.5	0.0302	3.3938	0.0302043	0.00391191	0.0799169	0.00256642	0.00823079	2	-0.313258	2.78201e-05	0.000000000000000E+000	0.000000000000000E+000	0.000000000000000E+000	-1.10972e-06	0.000000000000000E+000	0.00823079	0.00823079	0.0000000E+000	0.0000000E+000	0.0302	1	0.000102507	3.70706	112361
1	1	0	1	0	0	2	13	89377.4	0.0302	3.42186	0.0301992	0.0100675	0.107686	0.0026611	0.0359998	2	-0.312781	0.000122493	0.000000000000000E+000	0.000000000000000E+000	0.000000000000000E+000	-1.49531e-06	0.000000000000000E+000	0.0359998	0.0359998	0.0000000E+000	0.0000000E+000	0.0302	1	0.000103338	3.73464	113310
1	1	0	1	0	0	2	13	92977.4	0.0302	3.44647	0.030212	0.0100668	0.137887	0.00276481	0.0662008	2	-0.312514	0.00022621	0.000000000000000E+000	0.000000000000000E+000	0.000000000000000E+000	-1.91468e-06	0.000000000000000E+000	0.0662008	0.0662008	0.0000000E+000	0.0000000E+000	0.0302	1	0.000104125	3.75899	114076
1	1	0	1	0	0	2	13	96577.4	0.0302	3.46986	0.0301961	0.0100664	0.168087	0.00286925	0.0964004	2	-0.312514	0.000330646	0.000000000000000E+000	0.000000000000000E+000	0.000000000000000E+000	-2.33403e-06	0.000000000000000E+000	0.0964004	0.0964004	0.0000000E+000	0.0000000E+000	0.0302	1	0.000104776	3.78237	114911
1	1	0	1	0	0	2	13	100177	0.0302	3.49409	0.0301935	0.0100667	0.198286	0.0029744	0.1266	2	-0.312514	0.000435797	0.000000000000000E+000	0.000000000000000E+000	0.000000000000000E+000	-2.75338e-06	0.000000000000000E+000	0.1266	0.1266	0.0000000E+000	0.0000000E+000	0.0302	1	0.000105499	3.8066	115723
1	1	0	1	0	0	2	13	103711	0.0302	3.52225	0.0301986	0.0095085	0.227928	0.00307837	0.156242	2	-0.312686	0.000539767	0.000000000000000E+000	0.000000000000000E+000	0.000000000000000E+000	-3.16498e-06	0.000000000000000E+000	0.156242	0.156242	0.0000000E+000	0.0000000E+000	0.0302	1	0.000106367	3.83493	116636
1	1	0	1	0	0	2	13	106738	0.0302	3.55229	0.0302018	0.00775939	0.253324	0.00316818	0.181638	2	-0.312705	0.000629578	0.000000000000000E+000	0.000000000000000E+000	0.000000000000000E+000	-3.51762e-06	0.000000000000000E+000	0.181638	0.181638	0.0000000E+000	0.0000000E+000	0.0302	1	0.000107286	3.865	117619
1	1	0	1	0	0	2	13	109175	0.0302	3.5824	0.0302005	0.00636382	0.273765	0.00324109	0.202079	2	-0.312686	0.000702485	0.000000000000000E+000	0.000000000000000E+000	0.000000000000000E+000	-3.80147e-06	0.000000000000000E+000	0.202079	0.202079	0.0000000E+000	0.0000000E+000	0.0302	1	0.00010819	3.89508	118620
1	1	0	1	0	0	2	13	111214	0.0302	3.61246	0.0301954	0.0054238	0.290873	0.00330262	0.219187	2	-0.312705	0.000764018	0.000000000000000E+000	0.000000000000000E+000	0.000000000000000E+000	-4.03902e-06	0.000000000000000E+000	0.219187	0.219187	0.0000000E+000	0.0000000E+000	0.0302	1	0.00010908	3.92517	119636
1	1	0	1	0	0	2	13	112993	0.0302	3.64257	0.0302043	0.00480535	0.305796	0.00335675	0.23411	2	-0.312648	0.000818146	0.000000000000000E+000	0.000000000000000E+000	0.000000000000000E+000	-4.24625e-06	0.000000000000000E+000	0.23411	0.23411	0.0000000E+000	0.0000000E+000	0.0302	1	0.000110021	3.95521	120597
1	1	0	1	0	0	2	13	114617	0.0302	3.67261	0.0302069	0.00443774	0.319418	0.00340657	0.247732	2	-0.312648	0.000867964	0.000000000000000E+000	0.000000000000000E+000	0.000000000000000E+000	-4.4354e-06	0.000000000000000E+000	0.247732	0.247732	0.0000000E+000	0.0000000E+000	0.0302	1	0.000110938	3.98526	121582
1	1	0	1	0	0	2	13	116148	0.0302	3.70264	0.030198	0.00423901	0.332258	0.00345391	0.260572	2	-0.312686	0.000915308	0.000000000000000E+000	0.000000000000000E+000	0.000000000000000E+000	-4.61369e-06	0.000000000000000E+000	0.260572	0.260572	0.0000000E+000	0.0000000E+000	0.0302	1	0.000111812	4.01533	122612
1	1	0	1	0	0	2	13	117622	0.0302	3.73272	0.0302012	0.00407754	0.344623	0.00349988	0.272937	2	-0.312667	0.000961275	0.000000000000000E+000	0.000000000000000E+000	0.000000000000000E+000	-4.78539e-06	0.000000000000000E+000	0.272937	0.272937	0.0000000E+000	0.0000000E+000	0.0302	1	0.000112733	4.04539	123595
1	1	0	1	0	0	2	13	119046	0.0302	3.76275	0.0301986	0.00392864	0.356569	0.00354464	0.284883	2	-0.312724	0.00100604	0.000000000000000E+000	0.000000000000000E+000	0.000000000000000E+000	-4.95127e-06	0.000000000000000E+000	0.284883	0.284883	0.0000000E+000	0.0000000E+000	0.0302	1	0.00011363	4.07548	124600
1	1	0	1	0	0	2	13	120423	0.0302	3.7928	0.0301967	0.0037901	0.368121	0.00358828	0.296435	2	-0.312743	0.00104968	0.000000000000000E+000	0.000000000000000E+000	0.000000000000000E+000	-5.11169e-06	0.000000000000000E+000	0.296435	0.296435	0.0000000E+000	0.0000000E+000	0.0302	1	0.00011453	4.10554	125603
1	1	0	1	0	0	2	13	121757	0.0302	3.82288	0.0301935	0.00370285	0.379306	0.00363087	0.30762	2	-0.312705	0.00109227	0.000000000000000E+000	0.000000000000000E+000	0.000000000000000E+000	-5.267e-06	0.000000000000000E+000	0.30762	0.30762	0.0000000E+000	0.0000000E+000	0.0302	1	0.000115426	4.13559	126613
1	1	0	1	0	0	2	13	123067	0.0302	3.85287	0.0302018	0.00366634	0.390297	0.00367305	0.31861	2	-0.31282	0.00113444	0.000000000000000E+000	0.000000000000000E+000	0.000000000000000E+000	-5.41961e-06	0.000000000000000E+000	0.31861	0.31861	0.0000000E+000	0.0000000E+000	0.0302	1	0.000116364	4.16569	127571
1	1	0	1	0	0	2	13	124393	0.0302	3.88284	0.0301954	0.00373925	0.401418	0.00371606	0.329732	2	-0.312972	0.00117746	0.000000000000000E+000	0.000000000000000E+000	0.000000000000000E+000	-5.57404e-06	0.000000000000000E+000	0.329732	0.329732	0.0000000E+000	0.0000000E+000	0.0302	1	0.000117244	4.19582	128590
2	0	0	0	1	0	3	13	124596	3.88708	3.88698	-0.0330158	6.55376e-09	0.403125	0.00372269	0.331439	2	-0.311961	0.00118409	0.000000000000000E+000	0.000000000000000E+000	0.000000000000000E+000	-5.59774e-06	0.000000000000000E+000	0.331439	0.331439	0.0000000E+000	3.88708	0.0000000E+000	1	-0.000128332	4.19894	117731
2	1	0	0	0	0	3	13	124686	3.88708	3.88563	0.00634922	4.96264e-05	0.403168	0.00372326	0.331482	2	-0.311904	0.00118443	2.24206e-07	0.000000000000000E+000	0.000000000000000E+000	-5.59834e-06	0.000000000000000E+000	0.331482	0.331482	0.0000000E+000	3.88708	0.0000000E+000	1	2.46707e-05	4.19753	611986
2	1	0	0	0	0	3	13	124776	3.88708	3.88544	0.00657643	5.04795e-05	0.403321	0.00372386	0.331635	2	-0.311923	0.00118503	2.24206e-07	0.000000000000000E+000	0.000000000000000E+000	-5.60046e-06	0.000000000000000E+000	0.331635	0.331635	0.0000000E+000	3.88708	0.0000000E+000	1	2.55523e-05	4.19736	590812
2	1	0	0	0	0	3	13	124866	3.88708	3.88536	0.00573885	4.73343e-05	0.403466	0.00372442	0.33178	2	-0.31198	0.00118559	2.24206e-07	0.000000000000000E+000	0.000000000000000E+000	-5.60248e-06	0.000000000000000E+000	0.33178	0.33178	0.0000000E+000	3.88708	0.0000000E+000	1	2.22975e-05	4.19734	677028
2	1	0	0	0	0	3	13	124956	3.88708	3.8854	0.0043902	4.28623e-05	0.403599	0.00372493	0.331913	2	-0.311904	0.00118611	2.24206e-07	0.000000000000000E+000	0.000000000000000E+000	-5.60432e-06	0.000000000000000E+000	0.331913	0.331913	0.0000000E+000	3.88708	0.0000000E+000	1	1.70577e-05	4.1973	885018
2	1	0	0	0	0	3	13	125046	3.88708	3.88548	0.00613918	4.01135e-05	0.403723	0.00372542	0.332037	2	-0.31198	0.00118659	2.24206e-07	0.000000000000000E+000	0.000000000000000E+000	-5.60605e-06	0.000000000000000E+000	0.332037	0.332037	0.0000000E+000	3.88708	0.0000000E+000	1	2.38537e-05	4.19746	632898
2	1	0	0	0	0	3	13	125136	3.88708	3.88548	0.0046155	3.8967e-05	0.403839	0.00372587	0.332153	2	-0.311828	0.00118704	2.24206e-07	0.000000000000000E+000	0.000000000000000E+000	-5.60766e-06	0.000000000000000E+000	0.332153	0.332153	0.0000000E+000	3.88708	0.0000000E+000	1	1.79334e-05	4.1973	841832
2	1	0	0	0	0	3	13	125226	3.88708	3.88538	0.00255401	3.57715e-05	0.40395	0.0037263	0.332264	2	-0.311771	0.00118747	2.24206e-07	0.000000000000000E+000	0.000000000000000E+000	-5.60921e-06	0.000000000000000E+000	0.332264	0.332264	0.0000000E+000	3.88708	0.0000000E+000	1	9.92331e-06	4.19715	1.52129e+06
2	1	0	0	0	0	3	13	125316	3.88708	3.88544	0.00550654	3.43764e-05	0.404055	0.00372671	0.332369	2	-0.311809	0.00118788	2.24206e-07	0.000000000000000E+000	0.000000000000000E+000	-5.61066e-06	0.000000000000000E+000	0.332369	0.332369	0.0000000E+000	3.88708	0.0000000E+000	1	2.13953e-05	4.19725	705604
2	1	0	0	0	0	3	13	125406	3.88708	3.88546	0.00394913	3.3723e-05	0.404157	0.0037271	0.332471	2	-0.31179	0.00118828	2.24206e-07	0.000000000000000E+000	0.000000000000000E+000	-5.61208e-06	0.000000000000000E+000	0.332471	0.332471	0.0000000E+000	3.88708	0.0000000E+000	1	1.53442e-05	4.19725	983877
2	1	0	0	0	0	3	13	125496	3.88708	3.8853	0.00388612	3.20582e-05	0.404254	0.00372748	0.332568	2	-0.311866	0.00118865	2.24206e-07	0.000000000000000E+000	0.000000000000000E+000	-5.61342e-06	0.000000000000000E+000	0.332568	0.332568	0.0000000E+000	3.88708	0.0000000E+000	1	1.50988e-05	4.19717	999790